block trial startTime trialName trialType stopTime L_targetTime R_targetTime Choice L_press R_press L2_press R2_press L_RT R_RT L2_RT R2_RT
-1 1 15.2 Go 1 0 800 800 2 0 0 1 1 nan nan 752.3 752.3
-1 2 18.7 Go 1 0 800 800 1 1 1 0 0 702.2 718.3 nan nan
-1 3 21.9 Go 1 0 800 800 1 1 1 0 0 794.3 794.3 nan nan
-1 4 25.1 Go 1 0 800 800 1 1 1 0 0 794.3 794.3 nan nan
-1 5 28.6 Go 1 0 800 800 2 0 0 1 1 nan nan 758.9 758.9
-1 6 31.8 Go 1 0 800 800 1 1 1 0 0 775.5 775.5 nan nan
-1 7 35.2 Go 1 0 800 800 1 1 1 0 0 763.8 763.8 nan nan
-1 8 38.6 Go 1 0 800 800 1 1 1 0 0 790.2 790.2 nan nan
-1 9 41.6 Go 1 0 800 800 1 1 1 0 0 779.7 779.7 nan nan
-1 10 45.1 Go 1 0 800 800 1 1 1 0 0 798.5 782.3 nan nan
-1 11 48.5 Go 1 0 800 800 2 0 0 1 1 nan nan 757.4 773.0
-1 12 51.5 Go 1 0 800 800 1 1 1 0 0 781.1 781.1 nan nan
-1 13 54.6 Go 1 0 800 800 2 0 0 1 1 nan nan 785.3 785.3
-1 14 58.1 Go 1 0 800 800 1 1 1 0 0 771.7 771.7 nan nan
-1 15 61.2 Go 1 0 800 800 2 0 0 1 1 nan nan 790.2 806.1
-1 16 64.3 Go 1 0 800 800 2 0 0 1 1 nan nan 781.8 781.8
-1 17 67.6 Go 1 0 800 800 2 0 0 1 1 nan nan 778.8 778.8
-1 18 71.1 Go 1 0 800 800 1 1 1 0 0 785.4 785.4 nan nan
-1 19 74.4 Go 1 0 800 800 2 0 0 1 1 nan nan 790.6 790.6
-1 20 77.8 Go 1 0 800 800 2 0 0 1 1 nan nan 813.4 813.4
-1 21 80.8 Go 1 0 800 800 1 1 1 0 0 771.5 771.5 nan nan
-1 22 83.9 Go 1 0 800 800 2 0 0 1 1 nan nan 778.0 778.0
-1 23 87.1 Go 1 0 800 800 2 0 0 1 1 nan nan 790.6 790.6
-1 24 90.2 Go 1 0 800 800 1 1 1 0 0 812.6 812.6 nan nan
-1 25 93.5 Go 1 0 800 800 2 0 0 1 1 nan nan 757.3 757.3
-1 26 96.7 Go 1 0 800 800 1 1 1 0 0 783.2 783.2 nan nan
-1 27 100.2 Go 1 0 800 800 2 0 0 1 1 nan nan 816.7 816.7
-1 28 103.4 Go 1 0 800 800 1 1 1 0 0 816.9 800.8 nan nan
-1 29 106.7 Go 1 0 800 800 2 0 0 1 1 nan nan 810.7 810.7
-1 30 110.2 Go 1 0 800 800 2 0 0 1 1 nan nan 759.1 759.1
-1 31 113.5 Go 1 0 800 800 2 0 0 1 1 nan nan 799.6 799.6
-1 32 117.0 Go 1 0 800 800 2 0 0 1 1 nan nan 790.7 790.7
-1 33 120.0 Go 1 0 800 800 1 1 1 0 0 771.0 771.0 nan nan
-1 34 123.3 Go 1 0 800 800 1 1 1 0 0 800.0 784.0 nan nan
-1 35 126.6 Go 1 0 800 800 1 1 1 0 0 783.9 768.1 nan nan
-1 36 129.7 Go 1 0 800 800 2 0 0 1 1 nan nan 816.5 816.5
0 37 135.0 Go 1 0 800 800 2 0 0 1 1 nan nan 805.8 805.8
0 38 138.4 Go 1 0 800 800 2 0 0 1 1 nan nan 784.9 784.9
0 39 141.7 Stop-all 2 550 800 800 2 0 0 0 0 nan nan nan nan
0 40 145.0 Go 1 0 800 800 1 1 1 0 0 811.4 795.4 nan nan
0 41 148.3 Go 1 0 800 800 1 1 1 0 0 794.1 794.1 nan nan
0 42 151.8 Stop-right 4 550 800 800 1 1 1 0 0 834.4 818.4 nan nan
0 43 155.1 Go 1 0 800 800 2 0 0 1 1 nan nan 808.9 808.9
0 44 158.4 Go 1 0 800 800 1 1 1 0 0 747.6 747.6 nan nan
0 45 161.7 Go 1 0 800 800 2 0 0 1 1 nan nan 811.5 811.5
0 46 165.1 Go 1 0 800 800 1 1 1 0 0 770.9 770.9 nan nan
0 47 168.6 Go 1 0 800 800 2 0 0 1 1 nan nan 824.9 824.9
0 48 171.9 Stop-left 3 550 800 800 1 1 1 0 0 810.8 810.8 nan nan
0 49 175.3 Go 1 0 800 800 1 1 1 0 0 773.3 788.8 nan nan
0 50 178.5 Stop-right 4 515 800 800 2 0 0 1 0 nan nan 894.5 nan
0 51 181.7 Go 1 0 800 800 2 0 0 1 1 nan nan 812.9 812.9
0 52 184.8 Go 1 0 800 800 1 1 1 0 0 775.1 775.1 nan nan
0 53 188.3 Stop-all 2 585 800 800 1 0 0 0 0 nan nan nan nan
0 54 191.8 Stop-left 3 515 800 800 2 0 0 0 1 nan nan nan 874.8
0 55 195.0 Stop-left 3 550 800 800 2 0 0 0 1 nan nan nan 915.3
0 56 198.4 Go 1 0 800 800 1 1 1 0 0 829.9 829.9 nan nan
0 57 201.9 Stop-left 3 585 800 800 1 0 1 0 0 nan 797.8 nan nan
0 58 205.3 Go 1 0 800 800 2 0 0 1 1 nan nan 799.5 783.6
0 59 208.6 Go 1 0 800 800 2 0 0 1 1 nan nan 821.8 821.8
0 60 212.1 Go 1 0 800 800 1 1 1 0 0 791.3 791.3 nan nan
0 61 215.3 Go 1 0 800 800 1 1 1 0 0 778.7 778.7 nan nan
0 62 218.8 Go 1 0 800 800 1 1 1 0 0 824.7 824.7 nan nan
0 63 222.0 Stop-all 2 620 800 800 1 1 1 0 0 758.9 758.9 nan nan
0 64 225.5 Stop-right 4 550 800 800 1 1 0 0 0 895.1 nan nan nan
0 65 228.7 Go 1 0 800 800 1 1 0 0 0 683.2 nan nan nan
0 66 232.0 Stop-all 2 585 800 800 2 0 0 1 1 nan nan 824.3 824.3
0 67 235.2 Go 1 0 800 800 2 0 0 1 1 nan nan 844.0 844.0
0 68 238.6 Go 1 0 800 800 1 1 1 0 0 776.3 792.4 nan nan
0 69 241.8 Stop-right 4 585 800 800 2 0 0 0 1 nan nan nan 787.2
0 70 245.2 Go 1 0 800 800 2 0 0 1 1 nan nan 787.4 787.4
0 71 248.5 Go 1 0 800 800 2 0 0 1 1 nan nan 798.7 798.7
0 72 251.5 Go 1 0 800 800 2 0 0 1 1 nan nan 800.0 800.0
1 73 367.4 Go 1 0 800 800 1 1 1 0 0 808.5 808.5 nan nan
1 74 370.6 Go 1 0 800 800 2 0 0 1 1 nan nan 822.6 822.6
1 75 373.9 Stop-all 2 550 800 800 1 0 0 0 0 nan nan nan nan
1 76 377.0 Stop-left 3 620 800 800 1 1 1 0 0 835.7 820.0 nan nan
1 77 380.5 Go 1 0 800 800 2 0 0 1 1 nan nan 798.7 798.7
1 78 383.6 Go 1 0 800 800 1 1 1 0 0 807.8 807.8 nan nan
1 79 387.1 Stop-right 4 550 800 800 2 0 0 1 0 nan nan 890.6 nan
1 80 390.6 Go 1 0 800 800 2 0 0 1 1 nan nan 796.6 796.6
1 81 393.7 Stop-right 4 585 800 800 1 1 0 0 0 909.7 nan nan nan
1 82 396.9 Go 1 0 800 800 1 1 1 0 0 783.7 783.7 nan nan
1 83 400.3 Go 1 0 800 800 1 1 1 0 0 788.7 788.7 nan nan
1 84 403.4 Stop-right 4 620 800 800 2 0 0 1 1 nan nan 784.9 784.9
1 85 406.6 Go 1 0 800 800 2 0 0 1 1 nan nan 811.0 779.4
1 86 410.1 Go 1 0 800 800 1 1 1 0 0 787.2 787.2 nan nan
1 87 413.4 Go 1 0 800 800 1 1 1 0 0 790.0 790.0 nan nan
1 88 416.4 Go 1 0 800 800 2 0 0 1 1 nan nan 828.8 828.8
1 89 419.7 Go 1 0 800 800 2 0 0 1 1 nan nan 817.2 833.0
1 90 423.1 Stop-all 2 585 800 800 2 0 0 0 0 nan nan nan nan
1 91 426.5 Stop-right 4 585 800 800 2 0 0 1 0 nan nan 977.8 nan
1 92 429.9 Stop-all 2 620 800 800 2 0 0 1 1 nan nan 802.8 802.8
1 93 433.3 Go 1 0 800 800 1 1 1 0 0 879.3 879.3 nan nan
1 94 436.4 Go 1 0 800 800 1 1 1 0 0 790.6 790.6 nan nan
1 95 439.9 Go 1 0 800 800 1 1 1 0 0 798.5 798.5 nan nan
1 96 443.2 Stop-left 3 585 800 800 2 0 0 0 1 nan nan nan 917.3
1 97 446.6 Go 1 0 800 800 1 1 1 0 0 780.6 764.4 nan nan
1 98 449.9 Stop-left 3 620 800 800 2 0 0 0 1 nan nan nan 789.9
1 99 453.3 Go 1 0 800 800 1 1 1 0 0 803.9 803.9 nan nan
1 100 456.5 Go 1 0 800 800 1 1 1 0 0 794.7 794.7 nan nan
1 101 459.9 Go 1 0 800 800 2 0 0 1 1 nan nan 793.5 793.5
1 102 463.2 Go 1 0 800 800 1 1 1 0 0 768.6 768.6 nan nan
1 103 466.7 Stop-left 3 655 800 800 1 1 1 0 0 808.5 808.5 nan nan
1 104 469.8 Go 1 0 800 800 1 1 1 0 0 797.7 797.7 nan nan
1 105 472.8 Go 1 0 800 800 2 0 0 1 1 nan nan 811.8 811.8
1 106 476.3 Stop-all 2 585 800 800 2 0 0 0 0 nan nan nan nan
1 107 479.4 Go 1 0 800 800 2 0 0 1 1 nan nan 830.9 830.9
1 108 482.5 Go 1 0 800 800 2 0 0 1 1 nan nan 780.0 780.0
2 109 487.5 Go 1 0 800 800 2 0 0 1 1 nan nan 799.0 799.0
2 110 490.7 Stop-right 4 620 800 800 1 1 1 0 0 782.7 798.8 nan nan
2 111 493.9 Go 1 0 800 800 2 0 0 0 1 nan nan nan 803.7
2 112 497.0 Stop-left 3 620 800 800 1 1 1 0 0 784.3 784.3 nan nan
2 113 500.1 Go 1 0 800 800 1 1 1 0 0 787.6 787.6 nan nan
2 114 503.4 Stop-right 4 585 800 800 2 0 0 1 1 nan nan 775.3 791.3
2 115 506.6 Stop-left 3 585 800 800 2 0 0 0 1 nan nan nan 872.3
2 116 509.8 Go 1 0 800 800 1 1 1 0 0 765.7 781.6 nan nan
2 117 513.2 Go 1 0 800 800 2 0 0 1 1 nan nan 795.6 811.4
2 118 516.3 Go 1 0 800 800 1 1 1 0 0 780.6 780.6 nan nan
2 119 519.6 Stop-left 3 620 800 800 2 0 0 1 1 nan nan 817.2 849.2
2 120 522.8 Go 1 0 800 800 1 1 1 0 0 804.7 804.7 nan nan
2 121 526.2 Go 1 0 800 800 1 1 1 0 0 758.7 774.8 nan nan
2 122 529.7 Go 1 0 800 800 2 0 0 1 1 nan nan 795.6 795.6
2 123 533.1 Stop-right 4 550 800 800 2 0 0 1 0 nan nan 853.4 nan
2 124 536.3 Stop-right 4 585 800 800 2 0 0 1 1 nan nan 810.4 810.4
2 125 539.4 Go 1 0 800 800 1 1 1 0 0 809.3 809.3 nan nan
2 126 542.8 Go 1 0 800 800 2 0 0 1 1 nan nan 806.3 790.4
2 127 546.2 Go 1 0 800 800 2 0 0 1 1 nan nan 770.7 786.7
2 128 549.3 Go 1 0 800 800 2 0 0 1 0 nan nan 834.1 nan
2 129 552.3 Go 1 0 800 800 1 1 1 0 0 804.1 804.1 nan nan
2 130 555.5 Go 1 0 800 800 2 0 0 1 1 nan nan 827.5 827.5
2 131 558.8 Go 1 0 800 800 2 0 0 1 1 nan nan 784.6 784.6
2 132 562.1 Go 1 0 800 800 1 1 1 0 0 767.7 767.7 nan nan
2 133 565.2 Stop-all 2 620 800 800 1 0 0 0 0 nan nan nan nan
2 134 568.3 Go 1 0 800 800 2 0 0 1 1 nan nan 830.7 830.7
2 135 571.6 Go 1 0 800 800 1 1 1 0 0 785.3 785.3 nan nan
2 136 575.1 Go 1 0 800 800 1 1 1 0 0 805.3 805.3 nan nan
2 137 578.5 Go 1 0 800 800 2 0 0 1 1 nan nan 794.9 794.9
2 138 581.8 Stop-all 2 655 800 800 1 1 1 0 0 881.8 865.7 nan nan
2 139 585.1 Go 1 0 800 800 1 1 1 0 0 797.3 797.3 nan nan
2 140 588.6 Stop-all 2 620 800 800 1 0 1 0 0 nan 840.6 nan nan
2 141 592.1 Go 1 0 800 800 1 1 1 0 0 785.0 785.0 nan nan
2 142 595.4 Go 1 0 800 800 1 1 1 0 0 836.8 836.8 nan nan
2 143 598.5 Stop-all 2 585 800 800 2 0 0 1 0 nan nan 750.7 nan
2 144 601.9 Stop-left 3 585 800 800 2 0 0 0 1 nan nan nan 917.5
3 145 607.2 Go 1 0 800 800 1 1 1 0 0 785.6 769.6 nan nan
3 146 610.6 Stop-left 3 620 800 800 2 0 0 1 1 nan nan 804.7 804.7
3 147 613.9 Go 1 0 800 800 2 0 0 1 1 nan nan 834.9 834.9
3 148 617.0 Stop-right 4 550 800 800 1 1 0 0 0 919.1 nan nan nan
3 149 620.1 Stop-all 2 550 800 800 1 0 0 0 0 nan nan nan nan
3 150 623.3 Go 1 0 800 800 1 1 1 0 0 786.0 786.0 nan nan
3 151 626.5 Stop-left 3 585 800 800 1 0 1 0 0 nan 840.1 nan nan
3 152 629.8 Stop-left 3 620 800 800 2 0 0 1 1 nan nan 790.8 790.8
3 153 633.1 Stop-left 3 585 800 800 2 0 0 0 1 nan nan nan 848.0
3 154 636.3 Stop-right 4 585 800 800 2 0 0 1 1 nan nan 787.1 787.1
3 155 639.6 Go 1 0 800 800 2 0 0 1 1 nan nan 836.2 820.4
3 156 643.0 Go 1 0 800 800 2 0 0 1 1 nan nan 822.1 806.1
3 157 646.4 Go 1 0 800 800 2 0 0 1 1 nan nan 809.0 809.0
3 158 649.9 Go 1 0 800 800 1 1 1 0 0 797.8 782.1 nan nan
3 159 653.2 Go 1 0 800 800 2 0 0 1 1 nan nan 809.9 809.9
3 160 656.6 Go 1 0 800 800 1 1 1 0 0 805.9 805.9 nan nan
3 161 660.0 Stop-right 4 550 800 800 1 1 0 0 0 828.0 nan nan nan
3 162 663.1 Go 1 0 800 800 2 0 0 1 1 nan nan 774.9 791.1
3 163 666.3 Go 1 0 800 800 1 1 1 0 0 789.4 789.4 nan nan
3 164 669.7 Stop-all 2 585 800 800 2 0 0 0 0 nan nan nan nan
3 165 672.9 Go 1 0 800 800 2 0 0 1 1 nan nan 791.2 791.2
3 166 676.2 Stop-all 2 620 800 800 2 0 0 1 1 nan nan 794.9 794.9
3 167 679.7 Go 1 0 800 800 1 1 1 0 0 762.5 762.5 nan nan
3 168 682.9 Go 1 0 800 800 2 0 0 1 1 nan nan 797.1 797.1
3 169 686.3 Go 1 0 800 800 1 1 1 0 0 789.0 789.0 nan nan
3 170 689.4 Go 1 0 800 800 1 1 1 0 0 806.4 806.4 nan nan
3 171 692.6 Go 1 0 800 800 1 1 1 0 0 798.3 814.4 nan nan
3 172 695.9 Go 1 0 800 800 2 0 0 1 1 nan nan 801.0 801.0
3 173 699.4 Go 1 0 800 800 2 0 0 1 1 nan nan 786.4 818.2
3 174 702.5 Go 1 0 800 800 1 1 1 0 0 796.1 796.1 nan nan
3 175 705.9 Stop-right 4 585 800 800 2 0 0 1 1 nan nan 767.0 767.0
3 176 709.3 Go 1 0 800 800 1 1 1 0 0 807.0 807.0 nan nan
3 177 712.6 Go 1 0 800 800 1 1 1 0 0 778.1 778.1 nan nan
3 178 715.9 Stop-all 2 585 800 800 2 0 0 0 0 nan nan nan nan
3 179 719.1 Go 1 0 800 800 1 1 1 0 0 789.9 805.7 nan nan
3 180 722.2 Go 1 0 800 800 1 1 1 0 0 810.1 810.1 nan nan
4 181 726.2 Go 1 0 800 800 2 0 0 1 1 nan nan 828.5 828.5
4 182 729.7 Go 1 0 800 800 1 1 1 0 0 780.1 780.1 nan nan
4 183 733.0 Go 1 0 800 800 1 1 1 0 0 781.6 781.6 nan nan
4 184 736.3 Go 1 0 800 800 2 0 0 1 1 nan nan 822.2 822.2
4 185 739.3 Go 1 0 800 800 2 0 0 1 1 nan nan 835.0 835.0
4 186 742.6 Go 1 0 800 800 1 1 1 0 0 792.3 792.3 nan nan
4 187 745.8 Go 1 0 800 800 2 0 0 1 1 nan nan 802.3 802.3
4 188 749.1 Go 1 0 800 800 2 0 0 1 1 nan nan 772.8 789.0
4 189 752.2 Stop-left 3 620 800 800 2 0 0 1 1 nan nan 795.5 795.5
4 190 755.4 Stop-right 4 550 800 800 2 0 0 1 0 nan nan 915.7 nan
4 191 758.5 Stop-all 2 620 800 800 2 0 0 1 1 nan nan 799.5 847.4
4 192 761.6 Stop-left 3 585 800 800 2 0 0 0 1 nan nan nan 916.2
4 193 764.9 Go 1 0 800 800 1 1 1 0 0 813.7 813.7 nan nan
4 194 768.2 Go 1 0 800 800 1 1 1 0 0 810.2 810.2 nan nan
4 195 771.4 Stop-right 4 585 800 800 1 1 0 0 0 820.5 nan nan nan
4 196 774.5 Stop-all 2 585 800 800 1 0 0 0 0 nan nan nan nan
4 197 777.8 Stop-right 4 620 800 800 2 0 0 1 1 nan nan 837.7 837.7
4 198 781.0 Go 1 0 800 800 2 0 0 1 1 nan nan 836.7 836.7
4 199 784.1 Stop-left 3 620 800 800 1 1 1 0 0 837.6 821.8 nan nan
4 200 787.2 Go 1 0 800 800 2 0 0 1 1 nan nan 832.4 832.4
4 201 790.5 Go 1 0 800 800 2 0 0 1 1 nan nan 778.4 794.3
4 202 793.6 Go 1 0 800 800 1 1 1 0 0 791.2 791.2 nan nan
4 203 796.7 Go 1 0 800 800 1 1 1 0 0 798.0 798.0 nan nan
4 204 800.2 Go 1 0 800 800 2 0 0 1 1 nan nan 814.9 814.9
4 205 803.3 Stop-right 4 585 800 800 1 1 1 0 0 828.4 828.4 nan nan
4 206 806.5 Stop-all 2 620 800 800 1 0 0 0 0 nan nan nan nan
4 207 809.9 Go 1 0 800 800 2 0 0 1 1 nan nan 810.5 810.5
4 208 813.2 Go 1 0 800 800 2 0 0 1 1 nan nan 810.1 841.7
4 209 816.6 Stop-all 2 655 800 800 1 1 1 0 0 768.3 768.3 nan nan
4 210 819.7 Go 1 0 800 800 2 0 0 1 1 nan nan 806.8 806.8
4 211 822.7 Go 1 0 800 800 1 1 1 0 0 794.8 810.6 nan nan
4 212 825.9 Go 1 0 800 800 1 1 1 0 0 836.2 836.2 nan nan
4 213 829.2 Go 1 0 800 800 2 0 0 1 1 nan nan 764.1 780.0
4 214 832.6 Go 1 0 800 800 1 1 1 0 0 803.8 803.8 nan nan
4 215 835.7 Go 1 0 800 800 1 1 1 0 0 788.3 788.3 nan nan
4 216 838.8 Stop-left 3 585 800 800 1 0 1 0 0 nan 899.7 nan nan
5 217 844.7 Go 1 0 800 800 2 0 0 1 1 nan nan 788.6 788.6
5 218 847.7 Go 1 0 800 800 1 1 1 0 0 749.7 765.6 nan nan
5 219 850.8 Go 1 0 800 800 1 1 1 0 0 783.6 783.6 nan nan
5 220 853.9 Go 1 0 800 800 1 1 1 0 0 786.9 802.5 nan nan
5 221 857.4 Go 1 0 800 800 2 0 0 1 1 nan nan 782.9 782.9
5 222 860.6 Go 1 0 800 800 1 1 1 0 0 832.6 800.8 nan nan
5 223 863.6 Go 1 0 800 800 1 1 1 0 0 792.9 792.9 nan nan
5 224 866.9 Go 1 0 800 800 2 0 0 1 1 nan nan 820.0 820.0
5 225 870.3 Stop-all 2 620 800 800 1 1 1 0 0 797.0 797.0 nan nan
5 226 873.6 Go 1 0 800 800 2 0 0 1 1 nan nan 827.5 827.5
5 227 876.6 Go 1 0 800 800 2 0 0 1 1 nan nan 759.7 759.7
5 228 879.9 Go 1 0 800 800 2 0 0 1 1 nan nan 791.4 791.4
5 229 883.0 Stop-right 4 550 800 800 2 0 0 1 0 nan nan 865.6 nan
5 230 886.5 Go 1 0 800 800 1 1 1 0 0 769.1 785.1 nan nan
5 231 889.8 Stop-left 3 620 800 800 2 0 0 1 1 nan nan 813.2 813.2
5 232 893.1 Go 1 0 800 800 2 0 0 1 1 nan nan 804.5 804.5
5 233 896.6 Go 1 0 800 800 2 0 0 1 1 nan nan 804.5 804.5
5 234 899.8 Stop-right 4 585 800 800 1 0 1 0 0 nan 833.3 nan nan
5 235 903.1 Stop-left 3 585 800 800 1 1 1 0 0 752.7 768.6 nan nan
5 236 906.4 Go 1 0 800 800 1 1 1 0 0 796.4 796.4 nan nan
5 237 909.7 Go 1 0 800 800 1 1 1 0 0 815.6 831.9 nan nan
5 238 912.8 Go 1 0 800 800 2 0 0 1 1 nan nan 804.3 820.0
5 239 916.3 Stop-right 4 550 800 800 1 1 0 0 0 910.1 nan nan nan
5 240 919.8 Stop-left 3 550 800 800 2 0 0 0 1 nan nan nan 825.7
5 241 922.8 Stop-all 2 585 800 800 2 0 0 0 0 nan nan nan nan
5 242 926.2 Go 1 0 800 800 1 1 1 0 0 828.6 828.6 nan nan
5 243 929.6 Go 1 0 800 800 2 0 0 1 1 nan nan 740.4 740.4
5 244 933.0 Go 1 0 800 800 1 1 1 0 0 804.3 804.3 nan nan
5 245 936.1 Go 1 0 800 800 1 1 1 0 0 807.4 807.4 nan nan
5 246 939.4 Go 1 0 800 800 2 0 0 1 1 nan nan 809.0 824.9
5 247 942.9 Go 1 0 800 800 1 1 1 0 0 786.7 786.7 nan nan
5 248 946.3 Stop-left 3 585 800 800 1 1 1 0 0 749.3 749.3 nan nan
5 249 949.5 Go 1 0 800 800 1 1 1 0 0 797.9 797.9 nan nan
5 250 952.8 Stop-all 2 620 800 800 2 0 0 0 1 nan nan nan 816.4
5 251 956.2 Stop-right 4 585 800 800 2 0 0 1 0 nan nan 970.6 nan
5 252 959.2 Stop-all 2 585 800 800 2 0 0 0 0 nan nan nan nan
6 253 963.5 Go 1 0 800 800 2 0 0 1 1 nan nan 811.0 811.0
6 254 966.5 Stop-right 4 620 800 800 1 1 0 0 0 955.9 nan nan nan
6 255 969.9 Go 1 0 800 800 1 1 1 0 0 787.3 787.3 nan nan
6 256 973.2 Stop-left 3 550 800 800 1 0 1 0 0 nan 859.3 nan nan
6 257 976.3 Go 1 0 800 800 2 0 0 0 1 nan nan nan 828.7
6 258 979.8 Stop-left 3 585 800 800 2 0 0 0 1 nan nan nan 975.2
6 259 983.3 Go 1 0 800 800 1 0 0 0 0 nan nan nan nan
6 260 986.6 Go 1 0 800 800 2 0 0 1 1 nan nan 792.0 807.8
6 261 990.1 Go 1 0 800 800 1 1 1 0 0 731.5 731.5 nan nan
6 262 993.2 Go 1 0 800 800 2 0 0 1 1 nan nan 760.7 760.7
6 263 996.3 Stop-left 3 620 800 800 1 1 1 0 0 762.9 778.7 nan nan
6 264 999.8 Go 1 0 800 800 1 1 1 0 0 813.8 813.8 nan nan
6 265 1003.2 Go 1 0 800 800 1 1 1 0 0 772.4 772.4 nan nan
6 266 1006.5 Go 1 0 800 800 2 0 0 1 1 nan nan 814.5 830.5
6 267 1009.6 Go 1 0 800 800 2 0 0 1 1 nan nan 811.7 827.7
6 268 1013.0 Go 1 0 800 800 2 0 0 1 1 nan nan 843.8 795.9
6 269 1016.3 Stop-right 4 655 800 800 2 0 0 1 1 nan nan 812.9 812.9
6 270 1019.8 Go 1 0 800 800 1 1 1 0 0 765.8 765.8 nan nan
6 271 1022.9 Go 1 0 800 800 2 0 0 1 1 nan nan 791.8 807.5
6 272 1026.0 Stop-left 3 585 800 800 2 0 0 1 1 nan nan 793.5 793.5
6 273 1029.3 Go 1 0 800 800 2 0 0 1 1 nan nan 794.3 794.3
6 274 1032.3 Go 1 0 800 800 1 1 1 0 0 823.0 823.0 nan nan
6 275 1035.4 Stop-all 2 620 800 800 2 0 0 0 1 nan nan nan 841.0
6 276 1038.5 Go 1 0 800 800 2 0 0 1 1 nan nan 775.4 807.6
6 277 1041.6 Stop-right 4 620 800 800 1 1 1 0 0 807.6 807.6 nan nan
6 278 1044.9 Go 1 0 800 800 1 1 1 0 0 815.6 815.6 nan nan
6 279 1048.3 Stop-right 4 585 800 800 1 1 1 0 0 812.2 812.2 nan nan
6 280 1051.5 Go 1 0 800 800 2 0 0 1 1 nan nan 807.3 807.3
6 281 1054.5 Stop-all 2 585 800 800 1 1 1 0 0 810.0 810.0 nan nan
6 282 1057.7 Go 1 0 800 800 1 1 1 0 0 821.3 837.1 nan nan
6 283 1061.0 Stop-all 2 550 800 800 2 0 0 0 0 nan nan nan nan
6 284 1064.2 Go 1 0 800 800 1 1 1 0 0 780.6 796.4 nan nan
6 285 1067.4 Go 1 0 800 800 1 1 1 0 0 801.7 801.7 nan nan
6 286 1070.8 Stop-all 2 585 800 800 2 0 0 0 0 nan nan nan nan
6 287 1073.9 Go 1 0 800 800 2 0 0 1 1 nan nan 811.1 811.1
6 288 1077.1 Go 1 0 800 800 1 1 1 0 0 802.0 802.0 nan nan
7 289 1097.8 Go 1 0 800 800 2 0 0 1 1 nan nan 783.6 783.6
7 290 1101.0 Go 1 0 800 800 2 0 0 1 1 nan nan 790.0 805.5
7 291 1104.2 Go 1 0 800 800 2 0 0 1 1 nan nan 797.0 829.3
7 292 1107.6 Go 1 0 800 800 2 0 0 1 1 nan nan 797.8 813.3
7 293 1110.9 Stop-left 3 550 800 800 1 0 1 0 0 nan 896.3 nan nan
7 294 1114.1 Stop-right 4 550 800 800 2 0 0 1 0 nan nan 909.4 nan
7 295 1117.2 Go 1 0 800 800 1 1 1 0 0 801.9 801.9 nan nan
7 296 1120.3 Stop-all 2 620 800 800 2 0 0 1 1 nan nan 775.1 791.2
7 297 1123.5 Go 1 0 800 800 1 1 1 0 0 786.1 802.1 nan nan
7 298 1126.6 Go 1 0 800 800 1 1 1 0 0 802.2 802.2 nan nan
7 299 1129.9 Stop-right 4 585 800 800 1 1 0 0 0 847.9 nan nan nan
7 300 1133.3 Go 1 0 800 800 2 0 0 1 1 nan nan 812.2 812.2
7 301 1136.6 Go 1 0 800 800 1 1 1 0 0 787.6 803.5 nan nan
7 302 1140.0 Go 1 0 800 800 2 0 0 1 1 nan nan 793.4 793.4
7 303 1143.4 Stop-right 4 620 800 800 1 1 1 0 0 758.1 773.9 nan nan
7 304 1146.8 Go 1 0 800 800 1 1 1 0 0 808.0 824.0 nan nan
7 305 1149.9 Stop-left 3 585 800 800 2 0 0 0 1 nan nan nan 984.5
7 306 1153.1 Go 1 0 800 800 1 1 1 0 0 779.1 794.9 nan nan
7 307 1156.2 Go 1 0 800 800 2 0 0 1 1 nan nan 831.9 831.9
7 308 1159.4 Stop-all 2 585 800 800 2 0 0 0 0 nan nan nan nan
7 309 1162.5 Go 1 0 800 800 2 0 0 1 1 nan nan 804.6 804.6
7 310 1165.8 Go 1 0 800 800 1 1 1 0 0 796.7 796.7 nan nan
7 311 1169.2 Go 1 0 800 800 2 0 0 1 1 nan nan 807.0 822.8
7 312 1172.3 Go 1 0 800 800 1 1 1 0 0 798.4 798.4 nan nan
7 313 1175.8 Go 1 0 800 800 2 0 0 1 1 nan nan 792.3 792.3
7 314 1179.3 Go 1 0 800 800 1 1 1 0 0 803.8 803.8 nan nan
7 315 1182.7 Stop-right 4 585 800 800 1 1 1 0 0 837.4 821.5 nan nan
7 316 1185.9 Go 1 0 800 800 2 0 0 1 1 nan nan 770.9 786.7
7 317 1189.4 Stop-left 3 620 800 800 2 0 0 0 1 nan nan nan 848.8
7 318 1192.9 Go 1 0 800 800 1 1 1 0 0 791.9 791.9 nan nan
7 319 1196.4 Stop-all 2 620 800 800 1 1 1 0 0 802.2 802.2 nan nan
7 320 1199.5 Go 1 0 800 800 1 1 1 0 0 820.4 820.4 nan nan
7 321 1202.9 Go 1 0 800 800 2 0 0 1 1 nan nan 796.8 812.8
7 322 1206.4 Stop-all 2 585 800 800 2 0 0 0 0 nan nan nan nan
7 323 1209.8 Go 1 0 800 800 1 1 1 0 0 807.4 807.4 nan nan
7 324 1213.1 Stop-left 3 655 800 800 1 1 1 0 0 799.8 799.8 nan nan
8 325 1219.5 Go 1 0 800 800 2 0 0 1 1 nan nan 765.2 765.2
8 326 1222.6 Go 1 0 800 800 2 0 0 1 1 nan nan 866.4 866.4
8 327 1226.0 Go 1 0 800 800 2 0 0 1 1 nan nan 782.7 798.8
8 328 1229.4 Stop-right 4 550 800 800 1 1 0 0 0 860.8 nan nan nan
8 329 1232.8 Go 1 0 800 800 1 1 1 0 0 787.9 787.9 nan nan
8 330 1235.8 Go 1 0 800 800 2 0 0 1 1 nan nan 811.6 827.5
8 331 1239.0 Go 1 0 800 800 2 0 0 1 1 nan nan 818.6 818.6
8 332 1242.3 Stop-all 2 620 800 800 1 1 1 0 0 795.0 795.0 nan nan
8 333 1245.5 Go 1 0 800 800 2 0 0 1 1 nan nan 761.1 761.1
8 334 1249.0 Stop-left 3 620 800 800 2 0 0 1 1 nan nan 797.6 797.6
8 335 1252.2 Go 1 0 800 800 1 1 1 0 0 800.6 800.6 nan nan
8 336 1255.5 Go 1 0 800 800 2 0 0 1 1 nan nan 803.4 803.4
8 337 1258.9 Go 1 0 800 800 2 0 0 1 1 nan nan 780.5 796.4
8 338 1262.1 Stop-right 4 585 800 800 1 1 0 0 0 812.6 nan nan nan
8 339 1265.5 Go 1 0 800 800 1 1 1 0 0 790.0 805.4 nan nan
8 340 1269.0 Go 1 0 800 800 1 1 1 0 0 801.2 801.2 nan nan
8 341 1272.4 Stop-right 4 620 800 800 2 0 0 1 0 nan nan 887.3 nan
8 342 1275.7 Stop-all 2 585 800 800 1 1 1 0 0 789.5 789.5 nan nan
8 343 1278.8 Go 1 0 800 800 1 1 1 0 0 807.8 839.6 nan nan
8 344 1281.9 Go 1 0 800 800 2 0 0 1 1 nan nan 795.2 811.3
8 345 1285.1 Go 1 0 800 800 1 1 1 0 0 792.4 808.1 nan nan
8 346 1288.6 Go 1 0 800 800 1 1 1 0 0 786.1 786.1 nan nan
8 347 1291.8 Go 1 0 800 800 1 1 1 0 0 844.0 844.0 nan nan
8 348 1295.0 Go 1 0 800 800 2 0 0 1 1 nan nan 816.1 816.1
8 349 1298.4 Go 1 0 800 800 1 1 1 0 0 792.6 792.6 nan nan
8 350 1301.8 Stop-left 3 585 800 800 2 0 0 1 1 nan nan 808.1 840.2
8 351 1305.2 Stop-left 3 550 800 800 2 0 0 0 1 nan nan nan 840.3
8 352 1308.4 Stop-all 2 550 800 800 1 0 0 0 0 nan nan nan nan
8 353 1311.7 Go 1 0 800 800 1 0 0 1 1 nan nan 849.8 849.8
8 354 1315.1 Go 1 0 800 800 1 1 1 0 0 819.0 819.0 nan nan
8 355 1318.2 Stop-right 4 655 800 800 1 1 1 0 0 772.1 772.1 nan nan
8 356 1321.5 Go 1 0 800 800 2 0 0 1 1 nan nan 803.4 835.3
8 357 1325.0 Stop-left 3 585 800 800 2 0 0 0 1 nan nan nan 921.2
8 358 1328.1 Go 1 0 800 800 1 1 1 0 0 805.4 805.4 nan nan
8 359 1331.6 Go 1 0 800 800 2 0 0 1 1 nan nan 801.1 801.1
8 360 1335.0 Stop-all 2 585 800 800 2 0 0 0 0 nan nan nan nan
9 361 1340.5 Go 1 0 800 800 1 1 1 0 0 793.0 793.0 nan nan
9 362 1343.9 Go 1 0 800 800 2 0 0 1 1 nan nan 762.3 762.3
9 363 1347.1 Stop-left 3 620 800 800 1 1 1 0 0 801.9 801.9 nan nan
9 364 1350.2 Stop-right 4 620 800 800 2 0 0 1 1 nan nan 806.7 806.7
9 365 1353.3 Go 1 0 800 800 1 1 1 0 0 785.8 785.8 nan nan
9 366 1356.8 Go 1 0 800 800 2 0 0 1 1 nan nan 814.2 830.2
9 367 1360.0 Go 1 0 800 800 1 1 1 0 0 812.3 812.3 nan nan
9 368 1363.5 Go 1 0 800 800 2 0 0 1 1 nan nan 800.0 800.0
9 369 1366.9 Go 1 0 800 800 2 0 0 1 1 nan nan 770.6 770.6
9 370 1370.0 Go 1 0 800 800 2 0 0 1 1 nan nan 828.0 828.0
9 371 1373.4 Go 1 0 800 800 2 0 0 1 1 nan nan 787.8 787.8
9 372 1376.8 Stop-all 2 620 800 800 1 1 1 0 0 804.5 804.5 nan nan
9 373 1380.3 Go 1 0 800 800 2 0 0 1 1 nan nan 771.6 787.8
9 374 1383.5 Go 1 0 800 800 1 1 1 0 0 792.6 792.6 nan nan
9 375 1386.5 Go 1 0 800 800 2 0 0 1 1 nan nan 820.6 852.4
9 376 1389.7 Stop-left 3 585 800 800 2 0 0 0 1 nan nan nan 819.7
9 377 1393.2 Go 1 0 800 800 1 1 1 0 0 783.0 783.0 nan nan
9 378 1396.3 Go 1 0 800 800 2 0 0 1 1 nan nan 798.8 798.8
9 379 1399.8 Stop-right 4 585 800 800 1 1 0 0 0 890.9 nan nan nan
9 380 1403.0 Go 1 0 800 800 1 1 1 0 0 771.0 803.0 nan nan
9 381 1406.2 Stop-left 3 620 800 800 1 1 1 0 0 796.2 796.2 nan nan
9 382 1409.3 Go 1 0 800 800 2 0 0 1 1 nan nan 813.4 813.4
9 383 1412.7 Go 1 0 800 800 1 1 1 0 0 804.8 804.8 nan nan
9 384 1416.0 Go 1 0 800 800 1 1 1 0 0 793.8 793.8 nan nan
9 385 1419.1 Go 1 0 800 800 1 1 1 0 0 801.1 801.1 nan nan
9 386 1422.4 Stop-all 2 585 800 800 1 0 0 0 0 nan nan nan nan
9 387 1425.8 Stop-all 2 620 800 800 1 1 1 0 0 827.4 827.4 nan nan
9 388 1429.1 Go 1 0 800 800 2 0 0 1 1 nan nan 809.3 809.3
9 389 1432.3 Go 1 0 800 800 1 1 1 0 0 801.2 801.2 nan nan
9 390 1435.4 Go 1 0 800 800 2 0 0 1 1 nan nan 795.7 795.7
9 391 1438.7 Go 1 0 800 800 1 1 1 0 0 828.7 828.7 nan nan
9 392 1441.8 Stop-all 2 585 800 800 2 0 0 1 1 nan nan 749.6 781.7
9 393 1444.8 Stop-right 4 620 800 800 1 1 1 0 0 803.1 803.1 nan nan
9 394 1447.9 Stop-left 3 585 800 800 2 0 0 0 1 nan nan nan 914.3
9 395 1451.4 Go 1 0 800 800 2 0 0 1 1 nan nan 798.0 798.0
9 396 1454.9 Stop-right 4 585 800 800 2 0 0 1 1 nan nan 787.3 787.3
10 397 1459.2 Go 1 0 800 800 1 1 1 0 0 797.3 797.3 nan nan
10 398 1462.6 Go 1 0 800 800 1 1 1 0 0 813.3 813.3 nan nan
10 399 1465.9 Go 1 0 800 800 2 0 0 1 1 nan nan 853.3 885.3
10 400 1469.2 Go 1 0 800 800 1 1 1 0 0 776.2 776.2 nan nan
10 401 1472.4 Go 1 0 800 800 2 0 0 1 1 nan nan 774.8 774.8
10 402 1475.7 Go 1 0 800 800 2 0 0 1 1 nan nan 818.3 818.3
10 403 1479.2 Go 1 0 800 800 2 0 0 1 1 nan nan 752.2 768.4
10 404 1482.6 Stop-right 4 550 800 800 1 1 0 0 0 859.9 nan nan nan
10 405 1485.8 Go 1 0 800 800 2 0 0 1 1 nan nan 788.1 788.1
10 406 1489.2 Stop-all 2 550 800 800 1 0 0 0 0 nan nan nan nan
10 407 1492.3 Stop-right 4 585 800 800 2 0 0 1 0 nan nan 932.4 nan
10 408 1495.4 Go 1 0 800 800 2 0 0 1 1 nan nan 798.7 798.7
10 409 1498.5 Stop-left 3 620 800 800 1 1 1 0 0 790.9 790.9 nan nan
10 410 1501.7 Stop-right 4 620 800 800 1 1 1 0 0 823.7 823.7 nan nan
10 411 1504.8 Go 1 0 800 800 1 1 1 0 0 799.1 799.1 nan nan
10 412 1508.3 Stop-all 2 585 800 800 1 0 0 0 0 nan nan nan nan
10 413 1511.7 Stop-all 2 620 800 800 2 0 0 1 1 nan nan 857.3 857.3
10 414 1515.1 Go 1 0 800 800 2 0 0 1 1 nan nan 810.9 826.9
10 415 1518.4 Go 1 0 800 800 1 1 1 0 0 862.8 862.8 nan nan
10 416 1521.7 Go 1 0 800 800 1 1 1 0 0 822.3 822.3 nan nan
10 417 1524.7 Go 1 0 800 800 1 1 1 0 0 798.7 783.1 nan nan
10 418 1527.9 Go 1 0 800 800 2 0 0 1 1 nan nan 797.8 797.8
10 419 1531.1 Stop-left 3 585 800 800 2 0 0 1 1 nan nan 788.7 788.7
10 420 1534.6 Go 1 0 800 800 1 1 1 0 0 778.6 778.6 nan nan
10 421 1537.8 Go 1 0 800 800 1 1 1 0 0 779.8 779.8 nan nan
10 422 1541.1 Go 1 0 800 800 1 1 1 0 0 739.4 739.4 nan nan
10 423 1544.3 Go 1 0 800 800 1 1 1 0 0 802.2 802.2 nan nan
10 424 1547.8 Stop-all 2 585 800 800 2 0 0 0 0 nan nan nan nan
10 425 1550.8 Go 1 0 800 800 2 0 0 1 1 nan nan 800.3 800.3
10 426 1553.8 Stop-left 3 550 800 800 1 0 1 0 0 nan 929.3 nan nan
10 427 1557.0 Go 1 0 800 800 2 0 0 1 1 nan nan 803.4 803.4
10 428 1560.3 Stop-left 3 585 800 800 2 0 0 1 1 nan nan 805.8 805.8
10 429 1563.8 Go 1 0 800 800 2 0 0 1 1 nan nan 805.5 805.5
10 430 1567.1 Go 1 0 800 800 1 1 1 0 0 778.4 778.4 nan nan
10 431 1570.5 Go 1 0 800 800 2 0 0 1 1 nan nan 787.7 787.7
10 432 1574.0 Stop-right 4 585 800 800 2 0 0 0 1 nan nan nan 802.9
11 433 1578.1 Go 1 0 800 800 2 0 0 1 1 nan nan 801.5 817.4
11 434 1581.4 Stop-all 2 620 800 800 1 1 1 0 0 798.8 798.8 nan nan
11 435 1584.6 Go 1 0 800 800 2 0 0 1 1 nan nan 779.9 811.8
11 436 1587.9 Stop-left 3 550 800 800 2 0 0 0 1 nan nan nan 895.8
11 437 1591.2 Go 1 0 800 800 1 1 1 0 0 835.6 835.6 nan nan
11 438 1594.3 Go 1 0 800 800 2 0 0 1 1 nan nan 819.6 819.6
11 439 1597.8 Go 1 0 800 800 1 1 1 0 0 798.0 798.0 nan nan
11 440 1601.0 Stop-right 4 550 800 800 1 1 0 0 0 850.4 nan nan nan
11 441 1604.3 Go 1 0 800 800 1 1 1 0 0 806.5 806.5 nan nan
11 442 1607.8 Stop-all 2 585 800 800 2 0 0 0 0 nan nan nan nan
11 443 1611.2 Go 1 0 800 800 1 0 0 0 0 nan nan nan nan
11 444 1614.5 Go 1 0 800 800 1 1 1 0 0 781.3 781.3 nan nan
11 445 1618.0 Go 1 0 800 800 1 1 1 0 0 793.6 777.7 nan nan
11 446 1621.1 Stop-all 2 620 800 800 1 1 1 0 0 795.8 795.8 nan nan
11 447 1624.3 Go 1 0 800 800 1 1 1 0 0 803.4 803.4 nan nan
11 448 1627.4 Stop-right 4 585 800 800 1 1 1 0 0 784.5 784.5 nan nan
11 449 1630.6 Stop-right 4 550 800 800 1 1 0 0 0 854.5 nan nan nan
11 450 1633.7 Go 1 0 800 800 1 1 1 0 0 845.5 861.5 nan nan
11 451 1636.8 Go 1 0 800 800 2 0 0 1 1 nan nan 822.4 822.4
11 452 1639.9 Go 1 0 800 800 1 1 1 0 0 762.3 762.3 nan nan
11 453 1643.4 Stop-left 3 585 800 800 2 0 0 0 1 nan nan nan 936.4
11 454 1646.7 Stop-left 3 620 800 800 2 0 0 1 1 nan nan 789.4 789.4
11 455 1650.2 Stop-all 2 585 800 800 1 0 0 0 0 nan nan nan nan
11 456 1653.7 Stop-right 4 585 800 800 2 0 0 1 0 nan nan 918.4 nan
11 457 1657.0 Go 1 0 800 800 2 1 1 0 0 786.5 786.5 nan nan
11 458 1660.1 Go 1 0 800 800 2 0 0 1 1 nan nan 811.8 811.8
11 459 1663.5 Go 1 0 800 800 1 1 1 0 0 827.4 827.4 nan nan
11 460 1666.7 Stop-left 3 585 800 800 2 0 0 1 1 nan nan 807.8 792.0
11 461 1669.7 Go 1 0 800 800 2 0 0 1 1 nan nan 754.6 754.6
11 462 1672.9 Go 1 0 800 800 2 0 0 1 1 nan nan 827.0 827.0
11 463 1676.0 Go 1 0 800 800 1 1 1 0 0 785.7 785.7 nan nan
11 464 1679.3 Go 1 0 800 800 2 0 0 1 1 nan nan 784.9 784.9
11 465 1682.5 Go 1 0 800 800 2 0 0 1 1 nan nan 795.1 795.1
11 466 1685.7 Go 1 0 800 800 2 0 0 1 1 nan nan 792.6 792.6
11 467 1689.1 Go 1 0 800 800 2 0 0 1 1 nan nan 778.5 778.5
11 468 1692.3 Go 1 0 800 800 1 1 1 0 0 802.2 802.2 nan nan
12 469 1700.5 Go 1 0 800 800 1 1 1 0 0 817.7 817.7 nan nan
12 470 1703.8 Go 1 0 800 800 2 0 0 1 1 nan nan 797.1 813.3
12 471 1707.0 Stop-right 4 620 800 800 2 0 0 1 1 nan nan 802.2 818.3
12 472 1710.1 Go 1 0 800 800 1 1 1 0 0 805.7 805.7 nan nan
12 473 1713.6 Stop-all 2 620 800 800 1 1 1 0 0 787.0 819.0 nan nan
12 474 1717.1 Stop-left 3 550 800 800 1 0 1 0 0 nan 836.6 nan nan
12 475 1720.3 Stop-right 4 585 800 800 1 1 1 0 0 833.7 817.8 nan nan
12 476 1723.5 Go 1 0 800 800 2 0 0 1 1 nan nan 824.8 824.8
12 477 1727.0 Stop-right 4 550 800 800 2 0 0 1 0 nan nan 870.5 nan
12 478 1730.3 Go 1 0 800 800 1 1 1 0 0 797.7 797.7 nan nan
12 479 1733.7 Stop-left 3 585 800 800 2 0 0 0 1 nan nan nan 849.8
12 480 1736.9 Stop-right 4 585 800 800 1 1 0 0 0 887.2 nan nan nan
12 481 1740.1 Go 1 0 800 800 2 0 0 1 1 nan nan 845.1 861.0
12 482 1743.5 Go 1 0 800 800 2 0 0 1 1 nan nan 788.4 804.6
12 483 1746.7 Stop-all 2 585 800 800 1 1 1 0 0 784.3 800.3 nan nan
12 484 1749.8 Go 1 0 800 800 2 0 0 1 1 nan nan 818.0 834.1
12 485 1752.9 Go 1 0 800 800 2 0 0 1 1 nan nan 802.1 802.1
12 486 1756.3 Go 1 0 800 800 1 1 1 0 0 785.5 785.5 nan nan
12 487 1759.4 Go 1 0 800 800 2 0 0 1 1 nan nan 807.0 807.0
12 488 1762.6 Go 1 0 800 800 2 0 0 1 1 nan nan 804.2 820.2
12 489 1766.1 Stop-all 2 550 800 800 1 0 0 0 0 nan nan nan nan
12 490 1769.4 Stop-left 3 620 800 800 1 1 1 0 0 784.1 784.1 nan nan
12 491 1772.9 Go 1 0 800 800 1 1 1 0 0 789.2 789.2 nan nan
12 492 1776.2 Go 1 0 800 800 1 1 1 0 0 816.1 831.8 nan nan
12 493 1779.3 Go 1 0 800 800 2 0 0 1 1 nan nan 795.2 811.2
12 494 1782.4 Go 1 0 800 800 1 1 1 0 0 805.2 805.2 nan nan
12 495 1785.5 Go 1 0 800 800 2 0 0 1 1 nan nan 807.7 807.7
12 496 1788.7 Stop-left 3 585 800 800 2 0 0 0 1 nan nan nan 1011.1
12 497 1791.9 Go 1 0 800 800 1 1 1 0 0 826.8 810.9 nan nan
12 498 1795.2 Go 1 0 800 800 2 0 0 1 1 nan nan 805.6 805.6
12 499 1798.4 Stop-all 2 585 800 800 1 0 0 0 0 nan nan nan nan
12 500 1801.5 Go 1 0 800 800 1 1 1 0 0 807.7 807.7 nan nan
12 501 1804.5 Go 1 0 800 800 2 0 0 1 1 nan nan 798.1 798.1
12 502 1807.7 Go 1 0 800 800 2 0 0 1 1 nan nan 789.6 789.6
12 503 1810.9 Go 1 0 800 800 1 1 1 0 0 797.6 797.6 nan nan
12 504 1814.3 Go 1 0 800 800 2 0 0 1 1 nan nan 813.6 829.6
