block trial startTime trialName trialType stopTime L_targetTime R_targetTime Choice L_press R_press L2_press R2_press L_RT R_RT L2_RT R2_RT
-1 1 17.6 Go 1 0 0 0 2 0 0 1 1 nan nan 327.0 327.0
-1 2 21.1 Go 1 0 0 0 2 0 0 1 1 nan nan 348.5 348.5
-1 3 24.3 Go 1 0 0 0 1 1 1 0 0 341.5 341.5 nan nan
-1 4 27.6 Go 1 0 0 0 2 0 0 1 1 nan nan 330.3 330.3
-1 5 30.8 Go 1 0 0 0 1 1 1 0 0 324.2 324.2 nan nan
-1 6 34.3 Go 1 0 0 0 2 0 0 1 1 nan nan 296.6 296.6
-1 7 37.4 Go 1 0 0 0 1 1 1 0 0 295.9 295.9 nan nan
-1 8 40.9 Go 1 0 0 0 2 0 0 1 1 nan nan 351.8 335.7
-1 9 44.2 Go 1 0 0 0 2 0 0 1 1 nan nan 347.9 347.9
-1 10 47.4 Go 1 0 0 0 1 1 1 0 0 311.2 295.3 nan nan
-1 11 50.5 Go 1 0 0 0 1 1 1 0 0 334.7 334.7 nan nan
-1 12 53.5 Go 1 0 0 0 1 1 1 0 0 365.3 365.3 nan nan
-1 13 56.8 Go 1 0 0 0 2 0 0 1 1 nan nan 424.7 424.7
-1 14 60.0 Go 1 0 0 0 2 0 0 1 1 nan nan 346.3 346.3
-1 15 63.1 Go 1 0 0 0 1 1 1 0 0 312.6 312.6 nan nan
-1 16 66.3 Go 1 0 0 0 1 1 1 0 0 302.7 302.7 nan nan
-1 17 69.4 Go 1 0 0 0 2 0 0 1 1 nan nan 312.5 312.5
-1 18 72.9 Go 1 0 0 0 1 1 1 0 0 288.3 288.3 nan nan
-1 19 76.2 Go 1 0 0 0 1 1 1 0 0 302.0 302.0 nan nan
-1 20 79.6 Go 1 0 0 0 1 1 1 0 0 304.6 304.6 nan nan
-1 21 82.8 Go 1 0 0 0 2 0 0 1 1 nan nan 346.4 346.4
-1 22 86.0 Go 1 0 0 0 2 0 0 1 1 nan nan 350.6 350.6
-1 23 89.2 Go 1 0 0 0 2 0 0 1 1 nan nan 341.2 357.4
-1 24 92.5 Go 1 0 0 0 2 0 0 1 1 nan nan 352.0 352.0
-1 25 95.8 Go 1 0 0 0 1 1 1 0 0 382.0 382.0 nan nan
-1 26 98.8 Go 1 0 0 0 2 0 0 1 1 nan nan 383.3 383.3
-1 27 101.9 Go 1 0 0 0 2 0 0 1 1 nan nan 311.6 311.6
-1 28 105.0 Go 1 0 0 0 2 0 0 1 1 nan nan 318.0 318.0
-1 29 108.3 Go 1 0 0 0 1 1 1 0 0 277.3 277.3 nan nan
-1 30 111.7 Go 1 0 0 0 1 1 1 0 0 297.2 297.2 nan nan
-1 31 115.1 Go 1 0 0 0 2 0 0 1 1 nan nan 321.6 337.6
-1 32 118.3 Go 1 0 0 0 2 0 0 1 1 nan nan 326.5 326.5
-1 33 121.4 Go 1 0 0 0 1 1 1 0 0 295.2 295.2 nan nan
-1 34 124.6 Go 1 0 0 0 1 1 1 0 0 329.6 329.6 nan nan
-1 35 127.9 Go 1 0 0 0 1 1 1 0 0 303.1 303.1 nan nan
-1 36 131.3 Go 1 0 0 0 1 1 1 0 0 305.9 305.9 nan nan
0 37 155.9 Go 1 0 0 0 1 1 1 0 0 295.0 311.1 nan nan
0 38 159.0 Go 1 0 0 0 1 1 1 0 0 376.4 376.4 nan nan
0 39 162.3 Go 1 0 0 0 1 1 1 0 0 310.7 310.7 nan nan
0 40 165.4 Stop-left 3 250 0 0 1 1 1 0 0 326.0 326.0 nan nan
0 41 168.6 Go 1 0 0 0 2 0 0 1 1 nan nan 423.9 423.9
0 42 171.7 Stop-left 3 215 0 0 1 1 1 0 0 557.2 524.9 nan nan
0 43 175.2 Stop-all 2 250 0 0 1 0 0 0 0 nan nan nan nan
0 44 178.3 Go 1 0 0 0 2 0 0 1 1 nan nan 448.5 448.5
0 45 181.3 Go 1 0 0 0 2 0 0 1 1 nan nan 461.5 461.5
0 46 184.4 Go 1 0 0 0 1 1 1 0 0 470.8 470.8 nan nan
0 47 187.7 Go 1 0 0 0 1 1 1 0 0 378.0 378.0 nan nan
0 48 191.1 Go 1 0 0 0 2 0 0 1 1 nan nan 416.0 399.4
0 49 194.5 Go 1 0 0 0 1 1 1 0 0 316.3 316.3 nan nan
0 50 197.9 Go 1 0 0 0 2 0 0 1 1 nan nan 346.5 346.5
0 51 201.2 Go 1 0 0 0 2 0 0 1 1 nan nan 318.6 318.6
0 52 204.6 Stop-left 3 180 0 0 1 1 1 0 0 302.2 302.2 nan nan
0 53 207.9 Go 1 0 0 0 2 0 0 1 1 nan nan 463.1 463.1
0 54 211.0 Go 1 0 0 0 1 1 1 0 0 342.7 342.7 nan nan
0 55 214.4 Stop-right 4 250 0 0 2 0 0 1 1 nan nan 332.0 347.7
0 56 217.6 Go 1 0 0 0 2 0 0 1 1 nan nan 355.3 355.3
0 57 221.1 Stop-all 2 285 0 0 1 1 1 0 0 284.0 284.0 nan nan
0 58 224.5 Stop-right 4 215 0 0 1 1 0 0 0 563.8 nan nan nan
0 59 227.6 Stop-left 3 145 0 0 1 0 1 0 0 nan 538.9 nan nan
0 60 230.8 Go 1 0 0 0 2 0 0 1 1 nan nan 345.6 345.6
0 61 234.1 Go 1 0 0 0 2 0 0 1 1 nan nan 331.9 331.9
0 62 237.5 Stop-all 2 250 0 0 2 0 0 1 1 nan nan 321.1 321.1
0 63 240.7 Go 1 0 0 0 1 1 1 0 0 497.7 513.9 nan nan
0 64 243.8 Go 1 0 0 0 2 0 0 1 1 nan nan 436.4 468.3
0 65 247.2 Go 1 0 0 0 1 1 1 0 0 388.7 388.7 nan nan
0 66 250.3 Go 1 0 0 0 1 1 1 0 0 486.4 486.4 nan nan
0 67 253.6 Stop-right 4 250 0 0 1 1 1 0 0 368.8 368.8 nan nan
0 68 256.7 Go 1 0 0 0 2 0 0 1 1 nan nan 480.6 496.7
0 69 260.1 Stop-all 2 215 0 0 2 0 0 0 0 nan nan nan nan
0 70 263.5 Stop-right 4 215 0 0 2 0 0 1 0 nan nan 577.3 nan
0 71 266.6 Go 1 0 0 0 2 0 0 1 1 nan nan 519.2 519.2
0 72 269.9 Go 1 0 0 0 2 0 0 1 1 nan nan 420.6 436.6
1 73 281.5 Go 1 0 0 0 2 0 0 1 1 nan nan 334.4 334.4
1 74 284.6 Go 1 0 0 0 2 0 0 1 1 nan nan 321.3 321.3
1 75 287.7 Go 1 0 0 0 1 1 1 0 0 348.8 348.8 nan nan
1 76 291.1 Stop-right 4 250 0 0 1 1 1 0 0 398.6 398.6 nan nan
1 77 294.5 Go 1 0 0 0 1 1 1 0 0 459.5 459.5 nan nan
1 78 298.0 Go 1 0 0 0 2 0 0 1 1 nan nan 478.1 478.1
1 79 301.1 Go 1 0 0 0 2 0 0 1 1 nan nan 388.8 388.8
1 80 304.5 Go 1 0 0 0 2 0 0 1 1 nan nan 459.7 459.7
1 81 307.9 Stop-left 3 180 0 0 1 1 1 0 0 383.2 383.2 nan nan
1 82 311.3 Go 1 0 0 0 1 1 1 0 0 525.9 525.9 nan nan
1 83 314.7 Go 1 0 0 0 2 0 0 1 1 nan nan 433.6 433.6
1 84 318.1 Go 1 0 0 0 1 1 1 0 0 374.6 374.6 nan nan
1 85 321.3 Go 1 0 0 0 1 1 1 0 0 416.8 416.8 nan nan
1 86 324.5 Go 1 0 0 0 1 1 1 0 0 394.5 394.5 nan nan
1 87 327.5 Stop-all 2 250 0 0 1 1 1 0 0 358.9 375.0 nan nan
1 88 330.7 Go 1 0 0 0 1 1 1 0 0 379.0 379.0 nan nan
1 89 333.9 Stop-left 3 145 0 0 2 0 0 0 1 nan nan nan 489.3
1 90 337.0 Stop-all 2 215 0 0 1 0 0 0 0 nan nan nan nan
1 91 340.2 Go 1 0 0 0 2 0 0 1 1 nan nan 395.8 395.8
1 92 343.2 Go 1 0 0 0 2 0 0 1 1 nan nan 464.7 480.8
1 93 346.3 Go 1 0 0 0 1 1 1 0 0 432.2 432.2 nan nan
1 94 349.4 Stop-left 3 180 0 0 2 0 0 0 1 nan nan nan 515.1
1 95 352.6 Stop-left 3 215 0 0 2 0 0 0 1 nan nan nan 581.6
1 96 355.8 Stop-right 4 215 0 0 1 1 0 0 0 551.0 nan nan nan
1 97 359.3 Go 1 0 0 0 2 0 0 1 1 nan nan 484.3 484.3
1 98 362.5 Stop-all 2 250 0 0 1 0 0 0 0 nan nan nan nan
1 99 365.7 Stop-right 4 250 0 0 1 1 0 0 0 615.0 nan nan nan
1 100 369.2 Go 1 0 0 0 2 0 0 1 1 nan nan 505.1 505.1
1 101 372.4 Go 1 0 0 0 2 0 0 1 1 nan nan 463.3 463.3
1 102 375.8 Go 1 0 0 0 2 0 0 1 1 nan nan 426.5 426.5
1 103 379.1 Go 1 0 0 0 1 1 1 0 0 472.4 472.4 nan nan
1 104 382.4 Stop-all 2 285 0 0 2 0 0 0 0 nan nan nan nan
1 105 385.5 Stop-right 4 285 0 0 2 0 0 1 1 nan nan 421.1 469.3
1 106 388.7 Go 1 0 0 0 1 1 1 0 0 505.0 505.0 nan nan
1 107 392.0 Go 1 0 0 0 1 1 1 0 0 513.4 513.4 nan nan
1 108 395.4 Go 1 0 0 0 2 0 0 1 1 nan nan 474.2 474.2
2 109 400.0 Go 1 0 0 0 1 1 1 0 0 347.7 347.7 nan nan
2 110 403.3 Go 1 0 0 0 2 0 0 1 1 nan nan 404.0 404.0
2 111 406.6 Go 1 0 0 0 2 0 0 1 1 nan nan 414.8 414.8
2 112 410.1 Go 1 0 0 0 1 1 1 0 0 350.0 350.0 nan nan
2 113 413.2 Go 1 0 0 0 1 1 1 0 0 350.5 350.5 nan nan
2 114 416.7 Stop-all 2 320 0 0 2 0 0 1 1 nan nan 376.0 376.0
2 115 420.2 Stop-right 4 250 0 0 1 1 1 0 0 379.5 379.5 nan nan
2 116 423.5 Stop-right 4 215 0 0 1 1 0 0 0 617.4 nan nan nan
2 117 426.8 Go 1 0 0 0 2 0 0 1 1 nan nan 461.5 461.5
2 118 429.9 Go 1 0 0 0 2 0 0 1 1 nan nan 451.4 467.0
2 119 433.1 Go 1 0 0 0 1 1 1 0 0 471.6 487.6 nan nan
2 120 436.2 Go 1 0 0 0 2 0 0 1 1 nan nan 541.5 541.5
2 121 439.7 Go 1 0 0 0 1 1 1 0 0 511.1 511.1 nan nan
2 122 443.0 Stop-all 2 285 0 0 1 0 0 0 0 nan nan nan nan
2 123 446.0 Go 1 0 0 0 2 0 0 1 1 nan nan 447.5 463.5
2 124 449.4 Stop-left 3 250 0 0 2 0 0 0 1 nan nan nan 634.6
2 125 452.7 Stop-left 3 285 0 0 2 0 0 0 1 nan nan nan 650.8
2 126 455.7 Go 1 0 0 0 2 0 0 1 1 nan nan 547.5 547.5
2 127 459.2 Go 1 0 0 0 2 0 0 1 1 nan nan 521.9 521.9
2 128 462.4 Stop-right 4 250 0 0 1 1 0 0 0 647.1 nan nan nan
2 129 465.7 Stop-all 2 320 0 0 1 0 0 0 0 nan nan nan nan
2 130 469.1 Go 1 0 0 0 2 0 0 1 1 nan nan 439.5 455.5
2 131 472.5 Go 1 0 0 0 2 0 0 1 1 nan nan 526.6 478.4
2 132 475.7 Go 1 0 0 0 1 1 1 0 0 405.3 389.5 nan nan
2 133 478.9 Go 1 0 0 0 2 0 0 1 1 nan nan 459.4 459.4
2 134 482.2 Stop-left 3 320 0 0 1 1 1 0 0 498.3 498.3 nan nan
2 135 485.5 Go 1 0 0 0 1 1 1 0 0 413.9 413.9 nan nan
2 136 488.6 Go 1 0 0 0 2 0 0 1 1 nan nan 312.0 327.7
2 137 491.7 Go 1 0 0 0 1 1 1 0 0 476.6 476.6 nan nan
2 138 494.8 Go 1 0 0 0 2 0 0 1 1 nan nan 459.4 459.4
2 139 498.3 Go 1 0 0 0 1 1 1 0 0 290.7 290.7 nan nan
2 140 501.8 Stop-all 2 355 0 0 2 0 0 1 1 nan nan 316.7 316.7
2 141 505.0 Stop-right 4 285 0 0 2 0 0 1 1 nan nan 458.2 458.2
2 142 508.2 Stop-left 3 285 0 0 1 1 1 0 0 305.1 336.5 nan nan
2 143 511.6 Go 1 0 0 0 1 1 1 0 0 414.2 414.2 nan nan
2 144 515.1 Go 1 0 0 0 1 1 1 0 0 490.9 490.9 nan nan
3 145 519.5 Go 1 0 0 0 1 1 1 0 0 291.7 291.7 nan nan
3 146 523.0 Stop-all 2 320 0 0 2 0 0 1 1 nan nan 464.5 464.5
3 147 526.2 Stop-left 3 250 0 0 1 0 1 0 0 nan 566.2 nan nan
3 148 529.6 Go 1 0 0 0 1 1 1 0 0 487.4 487.4 nan nan
3 149 532.8 Go 1 0 0 0 2 0 0 1 1 nan nan 471.7 471.7
3 150 536.2 Stop-right 4 250 0 0 2 0 0 1 0 nan nan 591.3 nan
3 151 539.4 Go 1 0 0 0 2 0 0 1 1 nan nan 513.9 513.9
3 152 542.7 Go 1 0 0 0 1 1 1 0 0 420.2 420.2 nan nan
3 153 546.1 Stop-right 4 285 0 0 2 0 0 1 1 nan nan 313.2 313.2
3 154 549.2 Stop-left 3 285 0 0 2 0 0 0 1 nan nan nan 690.9
3 155 552.3 Go 1 0 0 0 2 0 0 1 1 nan nan 517.4 533.3
3 156 555.7 Go 1 0 0 0 1 1 1 0 0 479.3 479.3 nan nan
3 157 558.8 Stop-all 2 285 0 0 2 0 0 1 0 nan nan 481.2 nan
3 158 562.2 Go 1 0 0 0 2 0 0 1 1 nan nan 496.4 496.4
3 159 565.3 Go 1 0 0 0 2 0 0 1 1 nan nan 495.1 495.1
3 160 568.8 Go 1 0 0 0 1 1 1 0 0 509.8 509.8 nan nan
3 161 572.1 Go 1 0 0 0 1 1 1 0 0 489.9 489.9 nan nan
3 162 575.2 Stop-right 4 250 0 0 1 1 0 0 0 640.9 nan nan nan
3 163 578.6 Go 1 0 0 0 1 1 1 0 0 507.3 507.3 nan nan
3 164 582.0 Go 1 0 0 0 2 0 0 1 1 nan nan 486.5 486.5
3 165 585.0 Stop-right 4 285 0 0 1 1 1 0 0 371.5 371.5 nan nan
3 166 588.3 Go 1 0 0 0 2 0 0 1 1 nan nan 500.5 516.6
3 167 591.6 Go 1 0 0 0 2 0 0 1 1 nan nan 537.8 553.3
3 168 594.6 Go 1 0 0 0 1 1 1 0 0 450.8 450.8 nan nan
3 169 597.7 Go 1 0 0 0 1 1 1 0 0 476.0 476.0 nan nan
3 170 600.7 Go 1 0 0 0 2 0 0 1 1 nan nan 302.6 302.6
3 171 603.9 Stop-all 2 250 0 0 1 1 1 0 0 399.0 399.0 nan nan
3 172 607.1 Stop-left 3 320 0 0 1 1 1 0 0 444.8 444.8 nan nan
3 173 610.5 Go 1 0 0 0 2 0 0 1 1 nan nan 343.9 343.9
3 174 613.8 Stop-all 2 215 0 0 2 0 0 1 1 nan nan 365.2 380.9
3 175 617.1 Go 1 0 0 0 1 1 1 0 0 375.8 375.8 nan nan
3 176 620.3 Go 1 0 0 0 1 1 1 0 0 385.5 385.5 nan nan
3 177 623.6 Go 1 0 0 0 2 0 0 1 1 nan nan 455.8 472.0
3 178 627.0 Stop-left 3 285 0 0 2 0 0 1 1 nan nan 355.7 387.5
3 179 630.4 Go 1 0 0 0 1 1 1 0 0 121.5 105.6 nan nan
3 180 633.6 Go 1 0 0 0 1 1 1 0 0 309.4 309.4 nan nan
4 181 644.2 Go 1 0 0 0 1 1 1 0 0 250.5 250.5 nan nan
4 182 647.5 Go 1 0 0 0 1 1 1 0 0 354.2 354.2 nan nan
4 183 650.7 Go 1 0 0 0 1 1 1 0 0 498.7 498.7 nan nan
4 184 654.0 Go 1 0 0 0 1 1 1 0 0 395.9 395.9 nan nan
4 185 657.0 Go 1 0 0 0 1 1 1 0 0 374.1 374.1 nan nan
4 186 660.5 Go 1 0 0 0 1 1 1 0 0 352.5 352.5 nan nan
4 187 663.6 Stop-all 2 180 0 0 2 0 0 0 0 nan nan nan nan
4 188 667.1 Stop-left 3 250 0 0 1 1 1 0 0 371.1 371.1 nan nan
4 189 670.5 Stop-right 4 250 0 0 2 0 0 1 0 nan nan 572.3 nan
4 190 673.9 Go 1 0 0 0 2 0 0 1 1 nan nan 476.9 492.5
4 191 677.0 Stop-left 3 215 0 0 2 0 0 0 1 nan nan nan 524.8
4 192 680.3 Go 1 0 0 0 1 1 1 0 0 412.3 412.3 nan nan
4 193 683.6 Go 1 0 0 0 2 0 0 1 1 nan nan 485.8 517.8
4 194 687.0 Stop-all 2 215 0 0 1 1 1 0 0 379.1 394.9 nan nan
4 195 690.0 Go 1 0 0 0 1 1 1 0 0 484.6 484.6 nan nan
4 196 693.4 Go 1 0 0 0 1 1 1 0 0 402.2 402.2 nan nan
4 197 696.9 Go 1 0 0 0 1 1 1 0 0 504.7 504.7 nan nan
4 198 700.0 Go 1 0 0 0 2 0 0 1 1 nan nan 422.2 438.0
4 199 703.3 Go 1 0 0 0 2 0 0 1 1 nan nan 459.6 459.6
4 200 706.6 Stop-all 2 180 0 0 2 0 0 0 0 nan nan nan nan
4 201 709.8 Go 1 0 0 0 2 0 0 1 1 nan nan 449.6 465.8
4 202 713.1 Go 1 0 0 0 1 1 1 0 0 450.7 450.7 nan nan
4 203 716.2 Go 1 0 0 0 2 0 0 1 1 nan nan 408.8 408.8
4 204 719.4 Stop-all 2 215 0 0 2 0 0 0 0 nan nan nan nan
4 205 722.8 Stop-right 4 285 0 0 1 1 1 0 0 365.6 365.6 nan nan
4 206 726.1 Go 1 0 0 0 2 0 0 1 1 nan nan 493.7 493.7
4 207 729.6 Stop-left 3 250 0 0 1 1 1 0 0 375.7 375.7 nan nan
4 208 733.1 Go 1 0 0 0 2 0 0 1 1 nan nan 465.3 480.7
4 209 736.1 Go 1 0 0 0 2 0 0 1 1 nan nan 435.1 450.9
4 210 739.3 Go 1 0 0 0 2 0 0 1 1 nan nan 532.3 532.3
4 211 742.7 Stop-right 4 250 0 0 2 0 0 1 0 nan nan 548.6 nan
4 212 745.8 Go 1 0 0 0 1 1 1 0 0 469.8 485.3 nan nan
4 213 749.3 Stop-left 3 215 0 0 2 0 0 0 1 nan nan nan 497.3
4 214 752.5 Go 1 0 0 0 1 1 1 0 0 448.6 448.6 nan nan
4 215 755.8 Stop-right 4 285 0 0 1 1 1 0 0 449.2 449.2 nan nan
4 216 758.9 Go 1 0 0 0 2 0 0 1 1 nan nan 507.0 507.0
5 217 767.5 Go 1 0 0 0 2 0 0 1 1 nan nan 393.6 393.6
5 218 770.5 Go 1 0 0 0 2 0 0 1 1 nan nan 325.9 325.9
5 219 774.0 Go 1 0 0 0 1 1 1 0 0 272.8 272.8 nan nan
5 220 777.4 Go 1 0 0 0 1 1 1 0 0 565.6 565.6 nan nan
5 221 780.7 Go 1 0 0 0 2 0 0 1 1 nan nan 512.9 528.6
5 222 784.1 Stop-right 4 250 0 0 2 0 0 1 0 nan nan 535.6 nan
5 223 787.5 Stop-all 2 250 0 0 2 0 0 1 1 nan nan 413.4 413.4
5 224 791.0 Stop-left 3 250 0 0 1 0 1 0 0 nan 581.3 nan nan
5 225 794.2 Go 1 0 0 0 1 1 1 0 0 506.9 506.9 nan nan
5 226 797.5 Go 1 0 0 0 2 0 0 1 1 nan nan 516.1 516.1
5 227 800.8 Go 1 0 0 0 2 0 0 1 1 nan nan 540.2 572.4
5 228 804.1 Go 1 0 0 0 1 1 1 0 0 448.0 448.0 nan nan
5 229 807.2 Go 1 0 0 0 1 1 1 0 0 402.8 402.8 nan nan
5 230 810.6 Stop-all 2 215 0 0 2 0 0 1 1 nan nan 361.7 361.7
5 231 813.7 Stop-right 4 285 0 0 1 1 1 0 0 347.7 347.7 nan nan
5 232 816.8 Stop-right 4 250 0 0 1 1 1 0 0 353.2 353.2 nan nan
5 233 820.2 Go 1 0 0 0 2 0 0 1 1 nan nan 461.6 461.6
5 234 823.7 Stop-all 2 180 0 0 2 0 0 0 0 nan nan nan nan
5 235 826.9 Go 1 0 0 0 2 0 0 1 1 nan nan 571.3 571.3
5 236 830.0 Go 1 0 0 0 1 1 1 0 0 450.5 450.5 nan nan
5 237 833.3 Go 1 0 0 0 2 0 0 1 1 nan nan 440.4 440.4
5 238 836.7 Go 1 0 0 0 2 0 0 1 1 nan nan 381.4 381.4
5 239 840.1 Stop-left 3 285 0 0 1 1 1 0 0 253.9 253.9 nan nan
5 240 843.3 Stop-left 3 250 0 0 1 1 1 0 0 394.4 394.4 nan nan
5 241 846.6 Go 1 0 0 0 1 1 1 0 0 519.9 519.9 nan nan
5 242 850.0 Go 1 0 0 0 2 0 0 1 1 nan nan 450.1 450.1
5 243 853.5 Go 1 0 0 0 1 1 1 0 0 342.7 342.7 nan nan
5 244 856.9 Stop-right 4 215 0 0 1 1 1 0 0 296.6 296.6 nan nan
5 245 860.0 Go 1 0 0 0 2 0 0 1 1 nan nan 323.0 323.0
5 246 863.3 Stop-all 2 215 0 0 2 0 0 0 0 nan nan nan nan
5 247 866.5 Go 1 0 0 0 2 0 0 1 1 nan nan 441.5 441.5
5 248 869.8 Go 1 0 0 0 1 1 1 0 0 478.4 478.4 nan nan
5 249 873.3 Go 1 0 0 0 1 1 1 0 0 348.7 348.7 nan nan
5 250 876.4 Go 1 0 0 0 2 0 0 1 1 nan nan 466.2 466.2
5 251 879.8 Go 1 0 0 0 1 1 1 0 0 230.5 230.5 nan nan
5 252 882.9 Stop-left 3 215 0 0 1 0 1 0 0 nan 571.8 nan nan
6 253 888.2 Go 1 0 0 0 1 1 1 0 0 243.2 227.8 nan nan
6 254 891.7 Go 1 0 0 0 1 1 1 0 0 279.6 263.5 nan nan
6 255 894.7 Stop-all 2 250 0 0 1 0 0 0 0 nan nan nan nan
6 256 897.9 Go 1 0 0 0 2 0 0 1 1 nan nan 359.5 359.5
6 257 901.0 Go 1 0 0 0 2 0 0 1 1 nan nan 482.6 482.6
6 258 904.1 Go 1 0 0 0 1 1 1 0 0 371.0 371.0 nan nan
6 259 907.6 Stop-right 4 180 0 0 2 0 0 1 0 nan nan 508.4 nan
6 260 910.9 Go 1 0 0 0 2 0 0 1 1 nan nan 491.4 491.4
6 261 914.3 Stop-right 4 215 0 0 2 0 0 1 0 nan nan 661.6 nan
6 262 917.8 Stop-left 3 250 0 0 1 1 1 0 0 415.0 415.0 nan nan
6 263 921.0 Go 1 0 0 0 2 0 0 1 1 nan nan 521.7 521.7
6 264 924.3 Go 1 0 0 0 1 1 1 0 0 449.2 449.2 nan nan
6 265 927.3 Go 1 0 0 0 1 1 1 0 0 501.1 517.0 nan nan
6 266 930.7 Stop-left 3 215 0 0 2 0 0 0 1 nan nan nan 579.7
6 267 934.1 Stop-left 3 250 0 0 1 1 1 0 0 406.2 406.2 nan nan
6 268 937.4 Go 1 0 0 0 1 1 1 0 0 471.3 471.3 nan nan
6 269 940.6 Go 1 0 0 0 1 1 1 0 0 402.4 402.4 nan nan
6 270 943.9 Go 1 0 0 0 1 1 1 0 0 503.0 503.0 nan nan
6 271 946.9 Stop-right 4 250 0 0 2 0 0 1 0 nan nan 580.7 nan
6 272 950.4 Go 1 0 0 0 1 1 1 0 0 380.1 380.1 nan nan
6 273 953.8 Go 1 0 0 0 2 0 0 1 1 nan nan 398.0 413.6
6 274 957.3 Go 1 0 0 0 2 0 0 1 1 nan nan 383.5 383.5
6 275 960.6 Go 1 0 0 0 2 0 0 1 1 nan nan 350.5 350.5
6 276 964.1 Go 1 0 0 0 2 0 0 1 1 nan nan 455.5 471.5
6 277 967.4 Go 1 0 0 0 1 1 1 0 0 370.5 370.5 nan nan
6 278 970.6 Stop-all 2 285 0 0 2 1 1 0 0 433.2 433.2 nan nan
6 279 974.0 Stop-left 3 215 0 0 2 0 0 1 1 nan nan 368.6 368.6
6 280 977.4 Go 1 0 0 0 1 1 1 0 0 404.7 404.7 nan nan
6 281 980.8 Stop-all 2 250 0 0 1 1 1 0 0 397.8 397.8 nan nan
6 282 984.0 Stop-right 4 285 0 0 1 1 0 0 0 681.6 nan nan nan
6 283 987.1 Stop-all 2 215 0 0 2 0 0 0 0 nan nan nan nan
6 284 990.4 Go 1 0 0 0 2 0 0 1 1 nan nan 519.2 519.2
6 285 993.7 Go 1 0 0 0 2 0 0 1 1 nan nan 485.5 485.5
6 286 997.1 Go 1 0 0 0 1 1 1 0 0 439.1 439.1 nan nan
6 287 1000.5 Go 1 0 0 0 2 0 0 1 1 nan nan 501.6 501.6
6 288 1003.6 Go 1 0 0 0 1 1 1 0 0 409.2 409.2 nan nan
7 289 1126.9 Go 1 0 0 0 2 0 0 1 1 nan nan 342.0 342.0
7 290 1130.1 Go 1 0 0 0 1 1 1 0 0 271.4 271.4 nan nan
7 291 1133.5 Stop-all 2 250 0 0 2 0 0 1 1 nan nan 390.0 405.8
7 292 1136.9 Go 1 0 0 0 2 0 0 1 1 nan nan 445.1 461.2
7 293 1140.3 Stop-right 4 320 0 0 2 0 0 1 1 nan nan 479.0 479.0
7 294 1143.5 Go 1 0 0 0 1 1 1 0 0 461.4 461.4 nan nan
7 295 1147.0 Stop-all 2 215 0 0 1 1 1 0 0 376.5 376.5 nan nan
7 296 1150.5 Go 1 0 0 0 1 1 1 0 0 358.4 374.5 nan nan
7 297 1153.6 Stop-right 4 285 0 0 1 1 1 0 0 411.5 427.5 nan nan
7 298 1156.9 Go 1 0 0 0 1 1 1 0 0 398.4 398.4 nan nan
7 299 1160.2 Stop-left 3 180 0 0 1 0 1 0 0 nan 583.0 nan nan
7 300 1163.5 Stop-all 2 180 0 0 1 0 0 0 0 nan nan nan nan
7 301 1166.7 Go 1 0 0 0 1 1 1 0 0 443.0 475.2 nan nan
7 302 1170.0 Go 1 0 0 0 2 0 0 1 1 nan nan 560.8 560.8
7 303 1173.4 Go 1 0 0 0 2 0 0 1 1 nan nan 464.4 464.4
7 304 1176.7 Go 1 0 0 0 1 1 1 0 0 407.0 407.0 nan nan
7 305 1179.9 Go 1 0 0 0 1 1 1 0 0 392.9 392.9 nan nan
7 306 1183.2 Go 1 0 0 0 1 1 1 0 0 389.5 389.5 nan nan
7 307 1186.6 Go 1 0 0 0 2 0 0 1 1 nan nan 338.5 338.5
7 308 1189.7 Stop-left 3 215 0 0 1 0 1 0 0 nan 610.3 nan nan
7 309 1192.9 Stop-left 3 250 0 0 1 1 1 0 0 410.6 410.6 nan nan
7 310 1196.1 Go 1 0 0 0 2 0 0 1 1 nan nan 448.1 448.1
7 311 1199.5 Go 1 0 0 0 2 0 0 1 1 nan nan 472.5 472.5
7 312 1202.9 Go 1 0 0 0 2 0 0 1 1 nan nan 332.2 348.2
7 313 1206.3 Stop-right 4 250 0 0 1 1 0 0 0 577.8 nan nan nan
7 314 1209.3 Stop-right 4 285 0 0 2 0 0 1 1 nan nan 483.9 500.2
7 315 1212.4 Go 1 0 0 0 2 0 0 1 1 nan nan 463.5 495.4
7 316 1215.5 Go 1 0 0 0 2 0 0 1 1 nan nan 480.6 496.7
7 317 1218.6 Go 1 0 0 0 2 0 0 1 1 nan nan 472.4 488.5
7 318 1222.0 Go 1 0 0 0 1 1 1 0 0 421.3 421.3 nan nan
7 319 1225.3 Go 1 0 0 0 2 0 0 1 1 nan nan 477.0 477.0
7 320 1228.7 Go 1 0 0 0 2 0 0 1 1 nan nan 327.1 327.1
7 321 1232.0 Go 1 0 0 0 2 0 0 1 1 nan nan 499.3 515.2
7 322 1235.0 Stop-left 3 215 0 0 1 1 1 0 0 399.1 399.1 nan nan
7 323 1238.3 Go 1 0 0 0 2 0 0 1 1 nan nan 398.9 398.9
7 324 1241.4 Stop-all 2 215 0 0 1 1 1 0 0 369.6 369.6 nan nan
8 325 1245.8 Go 1 0 0 0 1 1 1 0 0 274.7 274.7 nan nan
8 326 1249.1 Go 1 0 0 0 1 1 1 0 0 485.1 500.7 nan nan
8 327 1252.1 Go 1 0 0 0 2 0 0 1 1 nan nan 401.7 401.7
8 328 1255.1 Go 1 0 0 0 2 0 0 1 1 nan nan 321.8 321.8
8 329 1258.5 Go 1 0 0 0 2 0 0 1 1 nan nan 319.6 319.6
8 330 1261.5 Stop-right 4 250 0 0 1 1 1 0 0 315.7 315.7 nan nan
8 331 1265.0 Stop-right 4 215 0 0 1 1 1 0 0 407.2 407.2 nan nan
8 332 1268.4 Go 1 0 0 0 2 0 0 1 1 nan nan 360.9 360.9
8 333 1271.9 Stop-right 4 180 0 0 2 0 0 1 1 nan nan 339.6 339.6
8 334 1275.2 Stop-all 2 180 0 0 2 0 0 0 0 nan nan nan nan
8 335 1278.6 Go 1 0 0 0 1 1 1 0 0 514.3 514.3 nan nan
8 336 1281.7 Go 1 0 0 0 2 0 0 1 1 nan nan 464.0 480.2
8 337 1284.9 Go 1 0 0 0 2 0 0 1 1 nan nan 387.1 403.1
8 338 1288.3 Go 1 0 0 0 1 1 1 0 0 406.0 406.0 nan nan
8 339 1291.8 Stop-left 3 180 0 0 1 1 1 0 0 411.7 443.7 nan nan
8 340 1295.3 Go 1 0 0 0 2 0 0 1 1 nan nan 349.4 349.4
8 341 1298.4 Stop-left 3 145 0 0 1 0 1 0 0 nan 447.3 nan nan
8 342 1301.6 Go 1 0 0 0 2 0 0 1 1 nan nan 486.5 486.5
8 343 1305.0 Go 1 0 0 0 1 1 1 0 0 372.8 372.8 nan nan
8 344 1308.0 Go 1 0 0 0 2 0 0 1 1 nan nan 404.1 420.1
8 345 1311.5 Go 1 0 0 0 2 0 0 1 1 nan nan 362.3 362.3
8 346 1314.9 Go 1 0 0 0 1 1 1 0 0 330.8 330.8 nan nan
8 347 1318.0 Go 1 0 0 0 2 0 0 1 1 nan nan 375.4 375.4
8 348 1321.3 Go 1 0 0 0 1 1 1 0 0 397.5 397.5 nan nan
8 349 1324.5 Go 1 0 0 0 1 1 1 0 0 408.8 408.8 nan nan
8 350 1327.8 Go 1 0 0 0 1 1 1 0 0 457.9 489.7 nan nan
8 351 1331.0 Stop-left 3 180 0 0 1 0 1 0 0 nan 514.1 nan nan
8 352 1334.1 Go 1 0 0 0 2 0 0 1 1 nan nan 511.6 511.6
8 353 1337.2 Stop-all 2 215 0 0 1 0 0 0 0 nan nan nan nan
8 354 1340.5 Stop-all 2 250 0 0 2 0 0 1 1 nan nan 401.9 417.8
8 355 1343.6 Stop-right 4 145 0 0 2 0 0 1 0 nan nan 533.9 nan
8 356 1346.7 Go 1 0 0 0 1 1 1 0 0 408.5 408.5 nan nan
8 357 1349.9 Stop-left 3 215 0 0 2 0 0 0 1 nan nan nan 622.4
8 358 1353.3 Go 1 0 0 0 2 0 0 1 1 nan nan 477.6 477.6
8 359 1356.5 Stop-all 2 215 0 0 1 1 1 0 0 375.2 375.2 nan nan
8 360 1359.9 Go 1 0 0 0 1 1 1 0 0 437.1 437.1 nan nan
9 361 1365.4 Go 1 0 0 0 2 0 0 1 1 nan nan 333.7 333.7
9 362 1368.8 Go 1 0 0 0 2 0 0 1 1 nan nan 469.6 517.4
9 363 1372.0 Stop-left 3 250 0 0 1 0 1 0 0 nan 643.8 nan nan
9 364 1375.3 Stop-right 4 180 0 0 2 0 0 1 0 nan nan 576.4 nan
9 365 1378.6 Go 1 0 0 0 1 1 1 0 0 466.3 482.3 nan nan
9 366 1381.6 Stop-left 3 285 0 0 2 0 0 1 1 nan nan 466.5 482.5
9 367 1384.8 Go 1 0 0 0 1 1 1 0 0 551.4 551.4 nan nan
9 368 1388.0 Stop-right 4 215 0 0 2 0 0 1 0 nan nan 531.8 nan
9 369 1391.3 Go 1 0 0 0 1 1 1 0 0 460.3 460.3 nan nan
9 370 1394.7 Stop-all 2 180 0 0 2 0 0 0 0 nan nan nan nan
9 371 1397.9 Go 1 0 0 0 1 1 1 0 0 392.2 392.2 nan nan
9 372 1401.1 Stop-all 2 215 0 0 2 0 0 0 0 nan nan nan nan
9 373 1404.5 Go 1 0 0 0 2 0 0 1 1 nan nan 408.6 425.0
9 374 1407.5 Go 1 0 0 0 1 1 1 0 0 476.1 476.1 nan nan
9 375 1410.7 Go 1 0 0 0 1 1 1 0 0 400.2 400.2 nan nan
9 376 1414.1 Go 1 0 0 0 2 0 0 1 1 nan nan 578.2 578.2
9 377 1417.4 Stop-right 4 250 0 0 2 0 0 1 1 nan nan 361.4 361.4
9 378 1420.5 Go 1 0 0 0 1 1 1 0 0 480.0 480.0 nan nan
9 379 1423.8 Go 1 0 0 0 2 0 0 1 1 nan nan 438.3 438.3
9 380 1427.0 Stop-left 3 250 0 0 1 1 1 0 0 448.6 448.6 nan nan
9 381 1430.5 Go 1 0 0 0 2 0 0 1 1 nan nan 479.3 495.5
9 382 1433.6 Go 1 0 0 0 2 0 0 1 1 nan nan 410.9 410.9
9 383 1437.1 Go 1 0 0 0 1 1 1 0 0 254.8 254.8 nan nan
9 384 1440.4 Go 1 0 0 0 1 1 1 0 0 327.8 327.8 nan nan
9 385 1443.5 Go 1 0 0 0 1 1 1 0 0 371.9 387.7 nan nan
9 386 1446.5 Go 1 0 0 0 1 1 1 0 0 320.5 320.5 nan nan
9 387 1450.0 Go 1 0 0 0 2 0 0 1 1 nan nan 349.8 349.8
9 388 1453.3 Go 1 0 0 0 2 0 0 1 1 nan nan 330.5 330.5
9 389 1456.5 Stop-left 3 215 0 0 1 1 1 0 0 237.7 237.7 nan nan
9 390 1459.6 Stop-all 2 250 0 0 2 0 0 0 0 nan nan nan nan
9 391 1463.0 Go 1 0 0 0 2 0 0 1 1 nan nan 517.1 517.1
9 392 1466.4 Go 1 0 0 0 1 1 1 0 0 513.5 513.5 nan nan
9 393 1469.7 Go 1 0 0 0 2 0 0 1 1 nan nan 374.9 406.8
9 394 1472.9 Stop-all 2 285 0 0 1 1 1 0 0 371.1 371.1 nan nan
9 395 1476.4 Go 1 0 0 0 1 1 1 0 0 369.1 369.1 nan nan
9 396 1479.5 Stop-right 4 215 0 0 1 1 1 0 0 327.7 327.7 nan nan
10 397 1553.0 Go 1 0 0 0 2 0 0 1 1 nan nan 336.3 336.3
10 398 1556.2 Stop-right 4 180 0 0 2 0 0 1 1 nan nan 329.6 329.6
10 399 1559.5 Stop-all 2 250 0 0 1 1 1 0 0 285.8 285.8 nan nan
10 400 1563.0 Go 1 0 0 0 1 1 1 0 0 431.9 431.9 nan nan
10 401 1566.2 Go 1 0 0 0 2 0 0 1 1 nan nan 399.8 415.9
10 402 1569.6 Go 1 0 0 0 1 1 1 0 0 387.5 387.5 nan nan
10 403 1572.7 Go 1 0 0 0 2 0 0 1 1 nan nan 351.2 351.2
10 404 1576.2 Go 1 0 0 0 2 0 0 1 1 nan nan 363.5 363.5
10 405 1579.4 Stop-all 2 215 0 0 2 0 0 1 1 nan nan 352.1 336.2
10 406 1582.8 Stop-right 4 145 0 0 1 1 0 0 0 531.0 nan nan nan
10 407 1586.2 Go 1 0 0 0 2 0 0 1 1 nan nan 440.3 440.3
10 408 1589.4 Go 1 0 0 0 1 1 1 0 0 399.4 399.4 nan nan
10 409 1592.9 Go 1 0 0 0 1 1 1 0 0 362.7 362.7 nan nan
10 410 1596.0 Stop-left 3 180 0 0 2 0 0 0 1 nan nan nan 551.0
10 411 1599.1 Go 1 0 0 0 1 1 1 0 0 410.5 410.5 nan nan
10 412 1602.5 Go 1 0 0 0 1 1 1 0 0 394.7 394.7 nan nan
10 413 1605.9 Go 1 0 0 0 1 1 1 0 0 407.8 407.8 nan nan
10 414 1609.0 Go 1 0 0 0 1 1 1 0 0 370.5 370.5 nan nan
10 415 1612.1 Go 1 0 0 0 1 1 1 0 0 424.8 424.8 nan nan
10 416 1615.3 Go 1 0 0 0 2 0 0 1 1 nan nan 454.7 454.7
10 417 1618.4 Go 1 0 0 0 2 0 0 1 1 nan nan 370.2 370.2
10 418 1621.8 Go 1 0 0 0 1 1 1 0 0 477.7 477.7 nan nan
10 419 1624.8 Go 1 0 0 0 2 0 0 1 1 nan nan 377.7 377.7
10 420 1627.9 Go 1 0 0 0 1 1 1 0 0 389.2 405.1 nan nan
10 421 1631.2 Stop-right 4 180 0 0 2 0 0 1 1 nan nan 366.4 366.4
10 422 1634.4 Stop-all 2 180 0 0 2 0 0 0 0 nan nan nan nan
10 423 1637.5 Stop-right 4 145 0 0 1 1 0 0 0 501.1 nan nan nan
10 424 1640.7 Go 1 0 0 0 1 1 1 0 0 391.2 391.2 nan nan
10 425 1643.8 Go 1 0 0 0 2 0 0 1 1 nan nan 466.4 466.4
10 426 1646.9 Stop-all 2 215 0 0 2 0 0 1 1 nan nan 424.5 424.5
10 427 1650.3 Stop-left 3 215 0 0 2 0 0 1 1 nan nan 375.8 375.8
10 428 1653.6 Go 1 0 0 0 1 1 1 0 0 404.5 420.8 nan nan
10 429 1657.0 Go 1 0 0 0 2 0 0 1 1 nan nan 378.6 394.5
10 430 1660.1 Stop-left 3 180 0 0 1 0 1 0 0 nan 621.2 nan nan
10 431 1663.5 Go 1 0 0 0 2 0 0 1 1 nan nan 469.7 501.6
10 432 1666.7 Stop-left 3 215 0 0 1 1 1 0 0 356.3 372.6 nan nan
11 433 1671.7 Go 1 0 0 0 2 0 0 1 1 nan nan 346.0 346.0
11 434 1674.8 Stop-left 3 180 0 0 1 1 1 0 0 355.8 355.8 nan nan
11 435 1678.2 Stop-all 2 180 0 0 2 0 0 0 0 nan nan nan nan
11 436 1681.3 Go 1 0 0 0 1 1 1 0 0 430.7 430.7 nan nan
11 437 1684.7 Stop-left 3 145 0 0 2 0 0 0 1 nan nan nan 542.1
11 438 1688.1 Stop-all 2 215 0 0 1 0 0 0 0 nan nan nan nan
11 439 1691.1 Go 1 0 0 0 1 1 1 0 0 470.9 470.9 nan nan
11 440 1694.5 Go 1 0 0 0 1 1 1 0 0 391.9 391.9 nan nan
11 441 1697.6 Stop-left 3 180 0 0 2 0 0 0 1 nan nan nan 577.0
11 442 1701.1 Go 1 0 0 0 2 0 0 1 1 nan nan 408.2 408.2
11 443 1704.2 Go 1 0 0 0 1 1 1 0 0 378.6 378.6 nan nan
11 444 1707.6 Stop-right 4 180 0 0 1 1 1 0 0 361.5 361.5 nan nan
11 445 1710.7 Go 1 0 0 0 2 0 0 1 1 nan nan 545.3 545.3
11 446 1713.9 Go 1 0 0 0 2 0 0 1 1 nan nan 448.8 464.8
11 447 1717.1 Go 1 0 0 0 2 0 0 1 1 nan nan 410.9 410.9
11 448 1720.4 Go 1 0 0 0 1 1 1 0 0 380.6 380.6 nan nan
11 449 1723.6 Stop-all 2 250 0 0 2 0 0 1 1 nan nan 386.9 386.9
11 450 1727.1 Go 1 0 0 0 1 1 1 0 0 487.5 503.5 nan nan
11 451 1730.3 Stop-left 3 215 0 0 2 0 0 0 1 nan nan nan 659.6
11 452 1733.8 Go 1 0 0 0 2 0 0 1 1 nan nan 365.7 365.7
11 453 1737.2 Go 1 0 0 0 1 1 1 0 0 453.5 453.5 nan nan
11 454 1740.3 Go 1 0 0 0 1 1 1 0 0 386.6 386.6 nan nan
11 455 1743.6 Go 1 0 0 0 1 1 1 0 0 677.2 677.2 nan nan
11 456 1747.0 Go 1 0 0 0 2 0 0 1 1 nan nan 403.5 403.5
11 457 1750.5 Go 1 0 0 0 2 0 0 1 1 nan nan 366.5 366.5
11 458 1753.5 Go 1 0 0 0 2 1 1 0 0 410.3 410.3 nan nan
11 459 1756.6 Go 1 0 0 0 1 1 1 0 0 355.7 355.7 nan nan
11 460 1760.1 Stop-right 4 145 0 0 2 0 0 1 0 nan nan 671.5 nan
11 461 1763.6 Go 1 0 0 0 1 1 1 0 0 384.2 384.2 nan nan
11 462 1766.8 Go 1 0 0 0 2 0 0 1 1 nan nan 329.1 329.1
11 463 1770.0 Stop-all 2 215 0 0 2 0 0 1 1 nan nan 349.2 349.2
11 464 1773.4 Stop-right 4 180 0 0 1 1 0 0 0 525.0 nan nan nan
11 465 1776.5 Stop-right 4 215 0 0 2 0 0 1 0 nan nan 607.6 nan
11 466 1780.0 Go 1 0 0 0 1 1 1 0 0 480.3 464.4 nan nan
11 467 1783.4 Go 1 0 0 0 1 1 1 0 0 388.1 388.1 nan nan
11 468 1786.7 Go 1 0 0 0 1 1 1 0 0 385.0 385.0 nan nan
12 469 1791.2 Go 1 0 0 0 1 1 1 0 0 244.8 244.8 nan nan
12 470 1794.6 Go 1 0 0 0 2 0 0 1 1 nan nan 419.3 419.3
12 471 1798.1 Stop-left 3 250 0 0 1 0 1 0 0 nan 587.1 nan nan
12 472 1801.3 Go 1 0 0 0 2 0 0 1 1 nan nan 473.9 505.9
12 473 1804.8 Stop-all 2 180 0 0 2 0 0 0 0 nan nan nan nan
12 474 1808.1 Stop-all 2 215 0 0 1 0 0 0 0 nan nan nan nan
12 475 1811.4 Go 1 0 0 0 2 0 0 1 1 nan nan 445.3 461.9
12 476 1814.9 Go 1 0 0 0 2 0 0 1 1 nan nan 460.4 476.8
12 477 1817.9 Go 1 0 0 0 1 1 1 0 0 445.5 445.5 nan nan
12 478 1821.0 Go 1 0 0 0 2 0 0 1 1 nan nan 400.8 384.9
12 479 1824.4 Go 1 0 0 0 1 1 1 0 0 263.1 263.1 nan nan
12 480 1827.8 Go 1 0 0 0 2 0 0 1 1 nan nan 455.1 455.1
12 481 1831.0 Go 1 0 0 0 2 0 0 1 1 nan nan 310.2 310.2
12 482 1834.3 Stop-right 4 250 0 0 1 1 0 0 0 685.7 nan nan nan
12 483 1837.3 Stop-left 3 285 0 0 2 0 0 1 1 nan nan 515.2 515.2
12 484 1840.7 Go 1 0 0 0 1 1 1 0 0 489.2 489.2 nan nan
12 485 1844.0 Stop-right 4 285 0 0 2 0 0 1 1 nan nan 413.2 413.2
12 486 1847.2 Go 1 0 0 0 2 0 0 1 1 nan nan 453.2 453.2
12 487 1850.5 Go 1 0 0 0 1 1 1 0 0 374.9 374.9 nan nan
12 488 1853.6 Go 1 0 0 0 2 0 0 1 1 nan nan 414.0 414.0
12 489 1857.1 Go 1 0 0 0 2 0 0 1 1 nan nan 324.6 324.6
12 490 1860.5 Stop-all 2 250 0 0 2 0 0 1 1 nan nan 395.0 395.0
12 491 1863.7 Stop-right 4 250 0 0 1 1 1 0 0 419.0 419.0 nan nan
12 492 1866.9 Stop-left 3 250 0 0 1 0 1 0 0 nan 708.2 nan nan
12 493 1870.4 Go 1 0 0 0 1 1 1 0 0 485.0 485.0 nan nan
12 494 1873.8 Stop-right 4 215 0 0 1 1 1 0 0 357.0 357.0 nan nan
12 495 1877.2 Stop-all 2 215 0 0 1 1 1 0 0 340.1 340.1 nan nan
12 496 1880.5 Go 1 0 0 0 2 0 0 1 1 nan nan 587.0 587.0
12 497 1883.7 Go 1 0 0 0 1 1 1 0 0 438.9 438.9 nan nan
12 498 1887.2 Stop-left 3 285 0 0 2 0 0 0 1 nan nan nan 642.3
12 499 1890.7 Go 1 0 0 0 2 0 0 1 1 nan nan 488.3 488.3
12 500 1893.8 Go 1 0 0 0 1 1 1 0 0 506.3 506.3 nan nan
12 501 1897.3 Go 1 0 0 0 2 0 0 1 1 nan nan 384.3 384.3
12 502 1900.7 Go 1 0 0 0 1 1 1 0 0 415.3 415.3 nan nan
12 503 1903.7 Go 1 0 0 0 1 1 1 0 0 373.3 357.4 nan nan
12 504 1906.8 Go 1 0 0 0 1 1 1 0 0 329.7 329.7 nan nan
